PacketCounter,SampleTimeFine,Quat_W,Quat_X,Quat_Y,Quat_Z,Acc_X,Acc_Y,Acc_Z,Gyr_X,Gyr_Y,Gyr_Z,Mag_X,Mag_Y,Mag_Z
0, 1145376398, 0.7046566605567932, -0.3054863512516022, -0.3984866142272949, -0.5013442039489746, 0, 0, 0, 0, 0, 0, -1.57958984375, 1.43115234375, -0.822265625
1, 1145384731, 0.7119799852371216, -0.29967817664146423, -0.38740476965904236, -0.503185510635376, 10.47868537902832, -2.158259391784668, 5.356593132019043, -0.020594578236341476, 195.47674560546875, 47.40532302856445, -1.564453125, 1.45361328125, -0.8662109375
2, 1145393064, 0.71944260597229, -0.2933815121650696, -0.37611478567123413, -0.5048447847366333, 10.651516914367676, -2.562967538833618, 5.383059501647949, 4.956757068634033, 200.3639678955078, 48.136470794677734, -1.48388671875, 1.48291015625, -0.888671875
3, 1145401397, 0.7268562912940979, -0.28683993220329285, -0.36476564407348633, -0.5063101053237915, 10.022276878356934, -2.346498727798462, 5.706486225128174, 7.685473918914795, 202.13763427734375, 48.956424713134766, -1.4658203125, 1.501953125, -0.93017578125
4, 1145409730, 0.7341574430465698, -0.28061482310295105, -0.35345152020454407, -0.5072877407073975, 9.881481170654297, -1.8080644607543945, 6.149731636047363, 6.871922492980957, 196.5770263671875, 54.22274398803711, -1.37890625, 1.52490234375, -0.94677734375
5, 1145418063, 0.7413643598556519, -0.27464258670806885, -0.34225720167160034, -0.5077513456344604, 10.353005409240723, -1.8468717336654663, 6.249880790710449, 7.185215473175049, 191.67965698242188, 59.796058654785156, -1.3515625, 1.54296875, -0.98291015625
6, 1145426396, 0.7485064268112183, -0.2684577703475952, -0.33096715807914734, -0.5080651640892029, 10.107234001159668, -1.8216054439544678, 6.068814754486084, 9.260711669921875, 192.75531005859375, 59.95758819580078, -1.2568359375, 1.5546875, -0.9912109375
7, 1145434729, 0.755294144153595, -0.2621649205684662, -0.31982818245887756, -0.5084398984909058, 8.867960929870605, -1.4383952617645264, 6.184204578399658, 9.7254638671875, 191.08250427246094, 56.07986831665039, -1.2265625, 1.56591796875, -1.01904296875
8, 1145443062, 0.7614970803260803, -0.25626832246780396, -0.30908718705177307, -0.508836567401886, 7.988855838775635, -1.0783030986785889, 7.0806884765625, 6.313401699066162, 181.1766357421875, 51.79541015625, -1.1357421875, 1.5732421875, -1.01953125
9, 1145451395, 0.7671066522598267, -0.2509615421295166, -0.2987465560436249, -0.5092318654060364, 8.787263870239258, -0.9816515445709229, 7.7754716873168945, 0.7276949882507324, 170.83453369140625, 49.030235290527344, -1.1064453125, 1.578125, -1.0380859375
10, 1145459728, 0.7723883986473083, -0.24586454033851624, -0.28816890716552734, -0.5098297595977783, 10.00383472442627, -1.2044237852096558, 8.339066505432129, -4.975702285766602, 170.71731567382812, 46.00600814819336, -1.01953125, 1.58349609375, -1.029296875
11, 1145468061, 0.7774147987365723, -0.24071650207042694, -0.2772062122821808, -0.5107244253158569, 10.421466827392578, -1.3566980361938477, 8.76910400390625, -9.304819107055664, 175.65817260742188, 42.4321403503418, -0.99267578125, 1.58203125, -1.0498046875
12, 1145476394, 0.7822469472885132, -0.23562249541282654, -0.26574504375457764, -0.5118127465248108, 10.271679878234863, -1.222334623336792, 8.955069541931152, -14.624220848083496, 180.01242065429688, 40.58888626098633, -0.90576171875, 1.5791015625, -1.02587890625
13, 1145484727, 0.7868058681488037, -0.23073479533195496, -0.2540946304798126, -0.5129668116569519, 10.510147094726562, -1.2704392671585083, 9.07459545135498, -19.442228317260742, 180.30743408203125, 39.59144592285156, -0.88818359375, 1.5791015625, -1.041015625
14, 1145493060, 0.7910983562469482, -0.22565291821956635, -0.2422378808259964, -0.5143595933914185, 11.057014465332031, -1.5335291624069214, 8.878114700317383, -20.323450088500977, 183.24913024902344, 34.84805679321289, -0.79833984375, 1.5712890625, -1.01220703125
15, 1145501393, 0.7950189709663391, -0.22028888761997223, -0.2300701141357422, -0.5162232518196106, 10.705726623535156, -0.9118131995201111, 8.660225868225098, -22.329322814941406, 189.3388671875, 27.376605987548828, -0.78564453125, 1.56298828125, -1.02099609375
16, 1145509726, 0.7984338402748108, -0.21527816355228424, -0.21772406995296478, -0.5184165835380554, 9.811823844909668, 0.1725212037563324, 8.418883323669434, -29.872772216796875, 187.7107391357422, 21.588106155395508, -0.70166015625, 1.55517578125, -0.9853515625
17, 1145518059, 0.8012897968292236, -0.21109075844287872, -0.2057098001241684, -0.5206337571144104, 9.744820594787598, 0.33635973930358887, 8.337905883789062, -38.43418502807617, 177.06259155273438, 19.077823638916016, -0.6904296875, 1.5498046875, -0.9921875
18, 1145526392, 0.8036537170410156, -0.20737357437610626, -0.1940317004919052, -0.5229620337486267, 10.430960655212402, 0.15129780769348145, 7.938680648803711, -42.78352737426758, 168.47731018066406, 14.44567584991455, -0.6181640625, 1.53857421875, -0.94384765625
19, 1145534725, 0.8054743409156799, -0.2038026750087738, -0.18260040879249573, -0.5256742238998413, 10.555803298950195, 0.6888971924781799, 7.416616439819336, -45.36592102050781, 164.78677368164062, 6.220077991485596, -0.6123046875, 1.53564453125, -0.9462890625
20, 1145543058, 0.8067086338996887, -0.20047420263290405, -0.17173781991004944, -0.5287137031555176, 10.081879615783691, 1.3271539211273193, 6.890567302703857, -46.237789154052734, 155.76611328125, -2.8538506031036377, -0.5458984375, 1.5244140625, -0.8994140625
21, 1145551391, 0.8073915243148804, -0.19759388267993927, -0.1618678867816925, -0.5318601131439209, 10.269364356994629, 1.513845443725586, 6.911999225616455, -45.93256378173828, 140.89950561523438, -9.503782272338867, -0.55029296875, 1.5185546875, -0.90380859375
22, 1145559724, 0.8076050877571106, -0.1952219158411026, -0.1526011824607849, -0.5351413488388062, 11.707995414733887, 1.7528380155563354, 7.305212020874023, -48.57258987426758, 129.43154907226562, -15.144136428833008, -0.48779296875, 1.5078125, -0.84814453125
23, 1145568057, 0.8075256943702698, -0.19278140366077423, -0.14353522658348083, -0.5386430025100708, 13.274192810058594, 2.156283378601074, 6.411109924316406, -47.75102233886719, 128.0576629638672, -20.225393295288086, -0.5, 1.51025390625, -0.85400390625
24, 1145576390, 0.8072344064712524, -0.19007080793380737, -0.13431160151958466, -0.5424085259437561, 12.80820369720459, 2.1356828212738037, 5.32985258102417, -46.84193801879883, 131.76307678222656, -25.026447296142578, -0.45263671875, 1.494140625, -0.7958984375
25, 1145584723, 0.8065353631973267, -0.18763373792171478, -0.12554453313350677, -0.5463824272155762, 11.493056297302246, 1.8286789655685425, 4.509687900543213, -48.08314514160156, 124.77406311035156, -30.884695053100586, -0.47119140625, 1.49609375, -0.79345703125
26, 1145593056, 0.8055403232574463, -0.18581783771514893, -0.11779829114675522, -0.5501826405525208, 11.646570205688477, 1.5178788900375366, 3.1057934761047363, -47.616695404052734, 107.56134033203125, -32.90217590332031, -0.43212890625, 1.4794921875, -0.73974609375
27, 1145601389, 0.8044180870056152, -0.18440034985542297, -0.11122336983680725, -0.5536589622497559, 12.301770210266113, 0.9337329268455505, 1.6719363927841187, -43.11809158325195, 90.80238342285156, -32.4659538269043, -0.45703125, 1.47998046875, -0.74658203125
28, 1145609722, 0.8032128214836121, -0.18334835767745972, -0.10558042675256729, -0.556853711605072, 12.215351104736328, 0.6774852275848389, 0.658594012260437, -39.70296859741211, 76.67015075683594, -31.921770095825195, -0.42431640625, 1.4716796875, -0.693359375
29, 1145618055, 0.8020359873771667, -0.18292906880378723, -0.10113820433616638, -0.5595059990882874, 11.876566886901855, 0.45613691210746765, 0.48396360874176025, -36.77965545654297, 57.43285369873047, -27.685455322265625, -0.45068359375, 1.4765625, -0.71435546875
30, 1145626388, 0.8011081218719482, -0.18309223651885986, -0.09802048653364182, -0.5613338947296143, 12.272122383117676, 0.20818790793418884, 0.5685389041900635, -31.102285385131836, 36.496490478515625, -19.318174362182617, -0.41796875, 1.46923828125, -0.66943359375
31, 1145634721, 0.8005459308624268, -0.1831432580947876, -0.09591817855834961, -0.5624812841415405, 12.538054466247559, -0.028997346758842468, 0.6388031840324402, -20.3277587890625, 25.074941635131836, -11.587200164794922, -0.4443359375, 1.4775390625, -0.6953125
32, 1145643054, 0.8003609776496887, -0.18257582187652588, -0.09461414068937302, -0.5631494522094727, 11.357349395751953, -0.1623305380344391, 0.9138389825820923, -5.628039360046387, 20.318103790283203, -6.319854259490967, -0.416015625, 1.46875, -0.65283203125
33, 1145651387, 0.8003928065299988, -0.18173865973949432, -0.09422449767589569, -0.5634403228759766, 9.258650779724121, 0.15843424201011658, 2.028357744216919, 5.321779727935791, 11.720626831054688, -3.0364909172058105, -0.4443359375, 1.474609375, -0.68310546875
34, 1145659720, 0.8006099462509155, -0.18124349415302277, -0.09488356858491898, -0.5631805062294006, 8.171270370483398, 0.5419784188270569, 3.4705708026885986, 10.994668006896973, -3.5736725330352783, 2.1989951133728027, -0.4169921875, 1.46630859375, -0.6494140625
35, 1145668053, 0.8010520339012146, -0.18082141876220703, -0.09623376280069351, -0.5624580383300781, 8.07408618927002, 0.3275358974933624, 4.355746746063232, 16.572891235351562, -12.64160442352295, 7.491130352020264, -0.44580078125, 1.4716796875, -0.68603515625
36, 1145676386, 0.8016005158424377, -0.18008483946323395, -0.09769074618816376, -0.5616611242294312, 7.623839378356934, 0.1480732560157776, 4.935974597930908, 21.3519229888916, -11.34903335571289, 8.380200386047363, -0.4150390625, 1.4677734375, -0.65673828125
37, 1145684719, 0.8021061420440674, -0.1791345328092575, -0.09918323904275894, -0.560981035232544, 6.57846212387085, 0.4178330600261688, 5.294338226318359, 23.59332275390625, -9.939967155456543, 6.459388732910156, -0.44384765625, 1.47412109375, -0.69677734375
38, 1145693052, 0.8025866150856018, -0.1784900724887848, -0.1008235365152359, -0.5602064728736877, 5.891671180725098, 0.6059703230857849, 5.660719394683838, 21.54605484008789, -14.074287414550781, 7.297077178955078, -0.41552734375, 1.46826171875, -0.66943359375
39, 1145701385, 0.8030281662940979, -0.17833298444747925, -0.10277970880270004, -0.559267520904541, 6.330585479736328, 0.6451312899589539, 5.203016757965088, 18.61376190185547, -21.89385986328125, 8.774226188659668, -0.44287109375, 1.47802734375, -0.7109375
40, 1145709718, 0.803386926651001, -0.17831401526927948, -0.10513684898614883, -0.5583193302154541, 7.265507221221924, 0.36454328894615173, 4.433201789855957, 20.092557907104492, -27.379343032836914, 7.400228977203369, -0.41943359375, 1.47412109375, -0.6884765625
41, 1145718051, 0.8035531044006348, -0.17826014757156372, -0.10796453058719635, -0.557557225227356, 8.155692100524902, 0.36549851298332214, 3.694814682006836, 23.238916397094727, -32.27621078491211, 2.7126407623291016, -0.44921875, 1.490234375, -0.73193359375
42, 1145726384, 0.8034254908561707, -0.1785201132297516, -0.11151056736707687, -0.5569597482681274, 9.604533195495605, 1.3010255098342896, 0.43756356835365295, 24.414987564086914, -42.476097106933594, -2.699105739593506, -0.42138671875, 1.4853515625, -0.71484375
43, 1145734717, 0.8023460507392883, -0.17977048456668854, -0.11664988845586777, -0.5570610165596008, 11.05744743347168, 2.77449107170105, -6.095000267028809, 22.166677474975586, -67.58696746826172, -20.05670928955078, -0.458984375, 1.50146484375, -0.7646484375
44, 1145743050, 0.8013458251953125, -0.18467170000076294, -0.12590453028678894, -0.5548785328865051, 12.18215274810791, 3.8977725505828857, -0.15486522018909454, 17.361621856689453, -146.2512664794922, 1.3985254764556885, -0.44384765625, 1.50830078125, -0.7509765625
45, 1145751383, 0.7994036674499512, -0.1922614425420761, -0.13776692748069763, -0.5522775650024414, 14.34017276763916, -2.4607813358306885, 18.190715789794922, 5.874149322509766, -198.43106079101562, -3.1119556427001953, -0.494140625, 1.52734375, -0.80859375
46, 1145759716, 0.7979968786239624, -0.19493836164474487, -0.14474445581436157, -0.5515885353088379, 14.86100959777832, -9.826017379760742, 24.04135513305664, 20.646589279174805, -101.03108215332031, -16.470134735107422, -0.478515625, 1.53759765625, -0.80517578125
47, 1145768049, 0.7983624339103699, -0.1907304972410202, -0.14681680500507355, -0.5519827604293823, 2.4596714973449707, -10.710457801818848, 14.68108081817627, 61.51508331298828, 11.138378143310547, -15.45496940612793, -0.52392578125, 1.5478515625, -0.84716796875
48, 1145776382, 0.7991926670074463, -0.18624915182590485, -0.15265028178691864, -0.5507278442382812, -6.986510276794434, -6.467406749725342, 6.008434772491455, 97.69976806640625, -31.122535705566406, -4.267550945281982, -0.50439453125, 1.5419921875, -0.84033203125
49, 1145784715, 0.8000156283378601, -0.18953119218349457, -0.1648016721010208, -0.5448800921440125, 3.549067974090576, 0.9922224879264832, 3.423255443572998, 69.76667022705078, -171.48020935058594, 46.29820251464844, -0.548828125, 1.548828125, -0.89501953125
50, 1145793048, 0.8014453649520874, -0.1938191056251526, -0.17570529878139496, -0.5378178358078003, 16.852371215820312, 4.6423187255859375, 7.423043251037598, 53.81059265136719, -166.78829956054688, 69.66326904296875, -0.53125, 1.5419921875, -0.88818359375
51, 1145801381, 0.8027293086051941, -0.19391629099845886, -0.18211543560028076, -0.5337201356887817, 12.858898162841797, 2.0856823921203613, 10.858610153198242, 59.08490753173828, -79.0077133178711, 37.83591842651367, -0.57666015625, 1.5439453125, -0.93701171875
52, 1145809714, 0.8032239079475403, -0.19179223477840424, -0.18722286820411682, -0.5319733619689941, 1.7612941265106201, 0.024397335946559906, 9.778867721557617, 66.15837860107422, -43.698097229003906, 3.9393506050109863, -0.55419921875, 1.5419921875, -0.92919921875
53, 1145818047, 0.8022869229316711, -0.190382182598114, -0.19436918199062347, -0.5313302874565125, -1.0562095642089844, 4.427160263061523, 8.047100067138672, 66.46290588378906, -72.55196380615234, -22.199542999267578, -0.60546875, 1.54345703125, -0.97314453125
54, 1145826380, 0.8006290793418884, -0.19164517521858215, -0.20227380096912384, -0.5304259061813354, 2.4295074939727783, 8.531005859375, 8.715731620788574, 41.414058685302734, -102.7191390991211, -19.48015022277832, -0.59814453125, 1.54296875, -0.96533203125
55, 1145834713, 0.7991940379142761, -0.19339628517627716, -0.2103693038225174, -0.5288031101226807, 7.47018575668335, 3.209771156311035, 10.292766571044922, 39.92707443237305, -109.99685668945312, -9.035404205322266, -0.65966796875, 1.55126953125, -1.00146484375
56, 1145843046, 0.798321008682251, -0.1937016248703003, -0.21624436974525452, -0.5276384949684143, 9.167521476745605, -2.795546531677246, 8.778288841247559, 39.888790130615234, -71.92118835449219, -8.284539222717285, -0.64892578125, 1.54833984375, -0.99169921875
57, 1145851379, 0.7977205514907837, -0.19196972250938416, -0.22081388533115387, -0.527286946773529, 6.795605182647705, -6.650570392608643, 8.649243354797363, 51.03855514526367, -40.14401626586914, -17.790388107299805, -0.70166015625, 1.5576171875, -1.02978515625
58, 1145859712, 0.7976112365722656, -0.18952366709709167, -0.2244722545146942, -0.5267922282218933, 7.375616550445557, -6.035304069519043, 10.085860252380371, 54.040584564208984, -23.531795501708984, -12.441360473632812, -0.68408203125, 1.55810546875, -1.0234375
59, 1145868045, 0.7979381680488586, -0.1861671805381775, 4.1534767511004143e+34, 9.061958339261083e+29, 8.688050478813866e-44, 819.760986328125, 0.7985835671424866, -0.17896468937397003, -0.22770391404628754, -0.527624785900116, 6.372802734375, 4.050537109375, -3.861083984375
60, 1145876378, 0.7981200814247131, -0.18315719068050385, -0.2272103726863861, -0.5270997285842896, 8.063485145568848, 1.9449238777160645, 8.806526184082031, 37.88393783569336, 14.56252384185791, -14.788915634155273, -0.70849609375, 1.560546875, -1.05126953125
61, 1145884711, 0.7983576059341431, -0.1809520721435547, -0.22755731642246246, -0.5273520946502686, 7.5198750495910645, 1.1140414476394653, 8.980317115783691, 25.950428009033203, 13.73043155670166, -8.782308578491211, -0.7529296875, 1.56298828125, -1.08203125
62, 1145893044, 0.7985835671424866, -0.17896468937397003, -0.22770391404628754, -0.527624785900116, 6.481196880340576, -0.3999193012714386, 8.047990798950195, 22.07921600341797, 14.70559024810791, -7.964086055755615, -0.73291015625, 1.56103515625, -1.06591796875
63, 1145901377, 0.7986977100372314, -0.17718151211738586, -0.2277030348777771, -0.5280540585517883, 5.3416852951049805, 0.5842621326446533, 8.200336456298828, 17.93730926513672, 14.540145874023438, -9.437570571899414, -0.77734375, 1.56591796875, -1.0947265625
64, 1145909710, 0.79874587059021, -0.17551574110984802, -0.22755229473114014, -0.5286019444465637, 3.2775702476501465, 1.7170312404632568, 7.619243621826172, 15.083806991577148, 15.76237964630127, -10.537906646728516, -0.75732421875, 1.56640625, -1.08056640625
65, 1145918043, 0.798759400844574, -0.17493876814842224, -0.22770535945892334, -0.5287068486213684, 4.708559036254883, 1.5386394262313843, 7.976500511169434, 6.579465389251709, 2.9861462116241455, -3.199781894683838, -0.8017578125, 1.57177734375, -1.109375
66, 1145926376, 0.7989328503608704, -0.17433995008468628, -0.22742462158203125, -0.5287632942199707, 5.066839218139648, 0.17914395034313202, 7.913687229156494, 4.249261379241943, 8.634521484375, -0.570172905921936, -0.78564453125, 1.5712890625, -1.09326171875
67, 1145934709, 0.7989118099212646, -0.17414997518062592, -0.22752156853675842, -0.5288161039352417, 6.7103424072265625, -0.01871928572654724, 7.924816608428955, 2.001457929611206, 0.5547658801078796, -1.530117392539978, -0.82470703125, 1.5771484375, -1.1220703125
68, 1145943042, 0.7991059422492981, -0.17384907603263855, -0.22718381881713867, -0.5287669897079468, 8.227355003356934, -0.5791400074958801, 8.823274612426758, 0.9349834322929382, 6.902792930603027, 1.812424898147583, -0.81005859375, 1.58056640625, -1.1025390625
69, 1145951375, 0.7991739511489868, -0.1729230433702469, -0.2265232652425766, -0.5292510390281677, 4.1411638259887695, 0.003041256219148636, 8.846145629882812, 3.447843313217163, 15.539761543273926, -6.109251976013184, -0.849609375, 1.5830078125, -1.1279296875
70, 1145959708, 0.7991410493850708, -0.17320388555526733, -0.22671528160572052, -0.5291264653205872, 5.32194709777832, -0.45517706871032715, 8.332307815551758, -1.9141263961791992, -4.025379657745361, 1.540939450263977, -0.8369140625, 1.58203125, -1.10888671875
71, 1145968041, 0.7991670370101929, -0.17313945293426514, -0.2266906052827835, -0.5291188359260559, 7.124203205108643, -1.1858197450637817, 8.100516319274902, 0.038306087255477905, 0.9811404347419739, 0.1606140434741974, -0.8818359375, 1.58154296875, -1.1337890625
72, 1145976374, 0.7990827560424805, -0.17278461158275604, -0.22651566565036774, -0.5294370651245117, 5.020073890686035, -0.7647392153739929, 7.87134313583374, 0.8993542790412903, 5.519701957702637, -4.805154323577881, -0.8701171875, 1.5810546875, -1.11767578125
73, 1145984707, 0.7989913821220398, -0.17284169793128967, -0.2266916036605835, -0.529481053352356, 5.185733795166016, -1.0622634887695312, 7.751615047454834, -0.2759421765804291, -2.3521296977996826, -1.3596802949905396, -0.9169921875, 1.5810546875, -1.1455078125
74, 1145993040, 0.7989080548286438, -0.1727682650089264, -0.22689399123191833, -0.5295440554618835, 5.689551830291748, -1.2324308156967163, 7.774335861206055, 1.3541349172592163, -1.2733348608016968, -2.0173258781433105, -0.90185546875, 1.57861328125, -1.12890625
75, 1146001373, 0.7988008856773376, -0.17267479002475739, -0.22713598608970642, -0.5296325087547302, 5.566898345947266, -1.311274528503418, 7.764220714569092, 1.6822019815444946, -1.9235520362854004, -2.590162515640259, -0.95166015625, 1.57763671875, -1.15234375
76, 1146009706, 0.7986530065536499, -0.1723671406507492, -0.22743435204029083, -0.5298277735710144, 4.672335624694824, -1.2861015796661377, 7.71135950088501, 4.062353610992432, -0.5094414949417114, -4.902154445648193, -0.939453125, 1.5771484375, -1.1337890625
77, 1146018039, 0.7984433174133301, -0.17218610644340515, -0.2278871387243271, -0.5300081968307495, 4.954038619995117, -1.089854121208191, 7.975833892822266, 3.650118112564087, -3.704228162765503, -5.11979866027832, -0.98828125, 1.57275390625, -1.1572265625
78, 1146026372, 0.7982252836227417, -0.17194481194019318, -0.22822517156600952, -0.5302693843841553, 6.141323089599609, -0.5808178186416626, 8.555665016174316, 3.2551465034484863, -1.4928232431411743, -6.031460762023926, -0.98095703125, 1.56298828125, -1.14208984375
79, 1146034705, 0.7980307340621948, -0.17161567509174347, -0.2284674495458603, -0.5305644273757935, 5.07258939743042, -0.6618829369544983, 8.232912063598633, 3.418335199356079, 0.004725826904177666, -6.232994079589844, -1.02783203125, 1.55859375, -1.166015625
80, 1146043038, 0.7977935671806335, -0.17135801911354065, -0.2288701832294464, -0.5308303833007812, 5.835153102874756, -0.7675022482872009, 8.136455535888672, 3.848219156265259, -2.1357920169830322, -6.4273552894592285, -1.025390625, 1.55224609375, -1.15185546875
81, 1146051371, 0.7975807785987854, -0.17091995477676392, -0.2290782630443573, -0.5312015414237976, 5.220889091491699, -0.1624625325202942, 8.163911819458008, 4.080232620239258, 1.2968615293502808, -7.46544885635376, -1.07275390625, 1.5419921875, -1.17431640625
82, 1146059704, 0.7973604798316956, -0.17059318721294403, -0.22950957715511322, -0.5314514636993408, 4.426529884338379, -0.37682434916496277, 7.8158369064331055, 4.907495498657227, -1.9326198101043701, -6.416724681854248, -1.068359375, 1.5322265625, -1.158203125
83, 1146068037, 0.7971239686012268, -0.17043142020702362, -0.23013202846050262, -0.5315889120101929, 4.71223258972168, -0.7208564877510071, 7.565547466278076, 4.758523941040039, -5.888559818267822, -5.1770219802856445, -1.1220703125, 1.5224609375, -1.17919921875
84, 1146076370, 0.7968237996101379, -0.17029890418052673, -0.23080745339393616, -0.5317884087562561, 5.445291996002197, -0.4363292157649994, 7.595122337341309, 4.532810688018799, -6.409322738647461, -6.405019760131836, -1.1171875, 1.51171875, -1.15478515625
85, 1146084703, 0.796552300453186, -0.17002372443675995, -0.23132316768169403, -0.5320590734481812, 5.512122631072998, -0.468976229429245, 7.773478984832764, 4.7173614501953125, -3.6879124641418457, -7.002293109893799, -1.1708984375, 1.5, -1.1728515625
86, 1146093036, 0.7962766885757446, -0.16962562501430511, -0.23180820047855377, -0.5323874950408936, 4.846065521240234, -0.8910700082778931, 7.844120979309082, 5.695927619934082, -2.0061326026916504, -8.036876678466797, -1.16748046875, 1.4833984375, -1.1474609375
87, 1146101369, 0.7959967255592346, -0.16931955516338348, -0.2323218137025833, -0.5326796770095825, 6.038273334503174, -0.545248806476593, 8.03337574005127, 4.951961994171143, -3.4169647693634033, -7.393062591552734, -1.21923828125, 1.46826171875, -1.15966796875
88, 1146109702, 0.7957444190979004, -0.16867932677268982, -0.23260380327701569, -0.5331361889839172, 5.772373199462891, -0.30202534794807434, 8.076297760009766, 6.502878665924072, 2.355908155441284, -9.577035903930664, -1.21240234375, 1.45751953125, -1.13134765625
89, 1146118035, 0.7954434752464294, -0.16810977458953857, -0.2329856902360916, -0.5335982441902161, 4.739204406738281, -0.5021235346794128, 8.087538719177246, 6.280393123626709, 0.28420278429985046, -9.939041137695312, -1.26171875, 1.439453125, -1.14697265625
90, 1146126368, 0.7950649261474609, -0.16774480044841766, -0.23354554176330566, -0.5340324640274048, 4.987062931060791, -0.3091781437397003, 8.30508041381836, 5.310459136962891, -3.1638455390930176, -10.01529598236084, -1.2509765625, 1.42529296875, -1.1171875
91, 1146134701, 0.7945794463157654, -0.16737399995326996, -0.23427008092403412, -0.5345539450645447, 4.311093330383301, -0.4449820816516876, 8.186279296875, 6.004937648773193, -5.375659942626953, -12.099654197692871, -1.30126953125, 1.4052734375, -1.123046875
92, 1146143034, 0.7939782738685608, -0.1673465520143509, -0.23537999391555786, -0.5349679589271545, 4.615424633026123, -0.027614852413535118, 8.200040817260742, 5.215277194976807, -12.429644584655762, -11.611934661865234, -1.28857421875, 1.3916015625, -1.08984375
93, 1146151367, 0.7933236956596375, -0.16754913330078125, -0.23668496310710907, -0.5352998971939087, 4.969906806945801, 0.24688565731048584, 7.914132595062256, 4.231741905212402, -16.915979385375977, -10.757316589355469, -1.33349609375, 1.3740234375, -1.10205078125
94, 1146159700, 0.7925474643707275, -0.16808061301708221, -0.23826761543750763, -0.5355809926986694, 5.430574417114258, 0.24898596107959747, 7.823831558227539, 2.621016502380371, -22.59164047241211, -10.721868515014648, -1.3203125, 1.3603515625, -1.068359375
95, 1146168033, 0.7914246320724487, -0.16929537057876587, -0.239777073264122, -0.5361847877502441, 4.999975204467773, 0.21046575903892517, 8.295343399047852, -7.271042823791504, -27.503923416137695, -14.33005142211914, -1.3623046875, 1.34130859375, -1.07421875
96, 1146176366, 0.7895543575286865, -0.17160147428512573, -0.24128460884094238, -0.5375307202339172, 4.239757061004639, -1.1409595012664795, 8.295963287353516, -23.307876586914062, -35.987178802490234, -24.368101119995117, -1.34765625, 1.3271484375, -1.0380859375
97, 1146184699, 0.7877399325370789, -0.17344875633716583, -0.24312634766101837, -0.5387685894966125, 5.991023063659668, -4.666197776794434, 7.975916862487793, -15.4081449508667, -36.573787689208984, -25.03711700439453, -1.39306640625, 1.3095703125, -1.037109375
98, 1146193032, 0.7856613993644714, -0.17403371632099152, -0.24543844163417816, -0.5405636429786682, 5.638141632080078, 2.4875075817108154, 8.121044158935547, -0.7008582353591919, -31.606372833251953, -38.42932891845703, -1.37744140625, 1.29296875, -1.00634765625
99, 1146201365, 0.784007728099823, -0.17601782083511353, -0.24726220965385437, -0.5414902567863464, 5.9138360023498535, -0.5087470412254333, 7.863093852996826, -15.539595603942871, -37.63811492919922, -19.941896438598633, -1.4140625, 1.27392578125, -1.0126953125
100, 1146209698, 0.7821102738380432, -0.1769968569278717, -0.2495092898607254, -0.5428825616836548, 4.84797477722168, -1.152665138244629, 8.220499038696289, -3.684000015258789, -34.16438293457031, -31.273479461669922, -1.39794921875, 1.26025390625, -0.98291015625
101, 1146218031, 0.7802327275276184, -0.17833779752254486, -0.2520406246185303, -0.5439751148223877, 4.267329692840576, 2.2340545654296875, 7.990164279937744, -4.41905403137207, -40.841087341308594, -27.29861068725586, -1.44091796875, 1.24072265625, -0.98974609375
102, 1146226364, 0.7786613702774048, -0.18023957312107086, -0.25491946935653687, -0.5442583560943604, 5.133949279785156, -0.082124263048172, 7.8735671043396, -4.240754127502441, -49.44258499145508, -15.28858470916748, -1.42333984375, 1.22314453125, -0.96142578125
103, 1146234697, 0.776997983455658, -0.18185007572174072, -0.2580429017543793, -0.544627845287323, 6.058656692504883, 0.5731557607650757, 8.185662269592285, 0.1381763368844986, -50.237632751464844, -18.47152328491211, -1.4609375, 1.20166015625, -0.96630859375
104, 1146243030, 0.775518536567688, -0.18330714106559753, -0.26123350858688354, -0.5447269678115845, 4.207286357879639, 0.5816345810890198, 8.194368362426758, 3.7318620681762695, -49.59672927856445, -14.967074394226074, -1.443359375, 1.18603515625, -0.94091796875
105, 1146251363, 0.774042010307312, -0.18533504009246826, -0.2649049460887909, -0.5443675518035889, 4.579387664794922, 0.12063425779342651, 8.283260345458984, 2.8683552742004395, -60.377220153808594, -9.166236877441406, -1.4873046875, 1.16259765625, -0.94287109375
106, 1146259696, 0.7726104259490967, -0.18732789158821106, -0.26880112290382385, -0.5438090562820435, 6.641663551330566, 0.5144469738006592, 7.797173023223877, 5.790874004364014, -62.63612747192383, -7.4571757316589355, -1.46826171875, 1.15234375, -0.91845703125
107, 1146268029, 0.7712275385856628, -0.18916217982769012, -0.2727646231651306, -0.543163001537323, 7.1196064949035645, 0.3618198037147522, 8.063385963439941, 8.40125560760498, -62.42624282836914, -6.878522872924805, -1.51416015625, 1.12744140625, -0.9189453125
108, 1146276362, 0.7698636651039124, -0.19068168103694916, -0.27683648467063904, -0.5425059795379639, 4.69384241104126, -0.2587561309337616, 7.916247844696045, 12.661761283874512, -60.97640609741211, -8.123659133911133, -1.4921875, 1.11865234375, -0.89892578125
109, 1146284695, 0.7681713700294495, -0.19316689670085907, -0.28159621357917786, -0.5415751338005066, 5.468362331390381, -0.01842244155704975, 7.792171478271484, 7.7300214767456055, -77.63714599609375, -5.759596824645996, -1.53564453125, 1.09228515625, -0.89453125
110, 1146293028, 0.766438364982605, -0.19544285535812378, -0.2864249348640442, -0.5406809449195862, 6.708592414855957, 0.12564115226268768, 7.701550483703613, 10.22439956665039, -76.67424011230469, -7.489591121673584, -1.515625, 1.0830078125, -0.86865234375
111, 1146301361, 0.7646517753601074, -0.19776621460914612, -0.29151588678359985, -0.5396437048912048, 5.192021369934082, -0.21515189111232758, 7.095660209655762, 12.07232666015625, -80.57989501953125, -6.8526153564453125, -1.55908203125, 1.05517578125, -0.86279296875
112, 1146309694, 0.7625793218612671, -0.2006918042898178, -0.2972327172756195, -0.5383760929107666, 7.266758918762207, 0.7351747751235962, 7.305048942565918, 10.549625396728516, -93.2183609008789, -5.881458282470703, -1.54150390625, 1.0439453125, -0.841796875
113, 1146318027, 0.7607378363609314, -0.20304153859615326, -0.3027033507823944, -0.5370506048202515, 6.551915168762207, 0.6784250736236572, 7.527613162994385, 15.620651245117188, -85.77278900146484, -5.198315620422363, -1.5830078125, 1.02197265625, -0.8291015625
114, 1146326360, 0.7587682008743286, -0.20584836602210999, -0.30864086747169495, -0.5353868007659912, 4.551585674285889, 0.24720390141010284, 7.240993976593018, 15.354666709899902, -95.33659362792969, -2.0424187183380127, -1.5625, 1.0048828125, -0.80322265625
115, 1146334693, 0.7565613985061646, -0.2092038244009018, -0.3151509165763855, -0.5334131121635437, 6.732100009918213, 0.8306255340576172, 7.468750476837158, 14.472206115722656, -107.40853118896484, 0.18776708841323853, -1.5966796875, 0.98046875, -0.78759765625
116, 1146343026, 0.754512369632721, -0.21228750050067902, -0.32156702876091003, -0.5312631726264954, 6.676964282989502, 0.6867636442184448, 7.433446884155273, 17.8416805267334, -104.09870910644531, 2.2335193157196045, -1.5810546875, 0.96875, -0.76318359375
117, 1146351359, 0.7522783279418945, -0.21568435430526733, -0.32835572957992554, -0.5289055109024048, 5.677893161773682, 0.43432462215423584, 7.373496055603027, 17.679338455200195, -111.83930206298828, 3.3739068508148193, -1.6162109375, 0.94677734375, -0.744140625
118, 1146359692, 0.7498372793197632, -0.21954089403152466, -0.33563825488090515, -0.5262068510055542, 6.723776817321777, 0.3106834590435028, 7.274142742156982, 17.453859329223633, -122.0860824584961, 5.975815773010254, -1.59814453125, 0.9375, -0.7216796875
119, 1146368025, 0.7472698092460632, -0.22350460290908813, -0.3431819677352905, -0.5233167409896851, 7.32448673248291, 0.3486689329147339, 7.295465469360352, 18.728591918945312, -126.8697280883789, 6.770593643188477, -1.6279296875, 0.916015625, -0.703125
120, 1146376358, 0.7444742918014526, -0.2275349199771881, -0.3510405123233795, -0.5203431844711304, 6.53171968460083, -0.2584631145000458, 7.079055309295654, 20.011985778808594, -131.77694702148438, 5.3056745529174805, -1.611328125, 0.9052734375, -0.67822265625
121, 1146384691, 0.7412323951721191, -0.23185037076473236, -0.35965487360954285, -0.5171740055084229, 6.256174564361572, -0.8469731211662292, 7.023898124694824, 22.039682388305664, -144.4601593017578, 3.156360626220703, -1.638671875, 0.884765625, -0.65673828125
122, 1146393024, 0.7374471426010132, -0.2362978309392929, -0.36902743577957153, -0.5139598250389099, 7.06229305267334, -0.7269623279571533, 6.970329284667969, 24.584171295166016, -155.8334503173828, -2.0501058101654053, -1.6201171875, 0.87548828125, -0.62939453125
123, 1146401357, 0.7331303954124451, -0.24080708622932434, -0.3790190517902374, -0.5107613205909729, 6.600412845611572, -0.9182445406913757, 6.757950305938721, 26.51824188232422, -165.32200622558594, -7.629209518432617, -1.6455078125, 0.85693359375, -0.60986328125
124, 1146409690, 0.7280659675598145, -0.24584652483463287, -0.3900030255317688, -0.50732421875, 4.958375453948975, -1.4229062795639038, 7.714993953704834, 26.918292999267578, -183.62486267089844, -11.033539772033691, -1.6259765625, 0.8466796875, -0.5810546875
125, 1146418023, 0.7222993969917297, -0.251552939414978, -0.4021952748298645, -0.5032340884208679, 5.267471790313721, -2.625908851623535, 9.679880142211914, 29.792766571044922, -206.463623046875, -9.864934921264648, -1.65576171875, 0.8232421875, -0.5576171875
126, 1146426356, 0.7154950499534607, -0.25734490156173706, -0.415759414434433, -0.4989842176437378, 8.320131301879883, -1.4582194089889526, 7.766882419586182, 35.737770080566406, -226.88348388671875, -19.777830123901367, -1.63916015625, 0.81005859375, -0.529296875
127, 1146434689, 0.7073660492897034, -0.26366662979125977, -0.430687814950943, -0.4945926070213318, 12.212217330932617, -0.2959062159061432, 7.313256740570068, 36.00270462036133, -252.11505126953125, -29.22886848449707, -1.66796875, 0.79248046875, -0.4921875
128, 1146443022, 0.6984439492225647, -0.27013862133026123, -0.4459093511104584, -0.4902721047401428, 7.7254719734191895, -2.0091371536254883, 9.491695404052734, 33.246009826660156, -260.3584899902344, -35.54340362548828, -1.65771484375, 0.77880859375, -0.466796875
129, 1146451355, 0.6874131560325623, -0.27685463428497314, -0.46290647983551025, -0.4863465428352356, 3.424769401550293, -3.5048506259918213, 8.665212631225586, 32.610565185546875, -290.5989685058594, -58.60087203979492, -1.6826171875, 0.75927734375, -0.43359375
130, 1146459688, 0.6738351583480835, -0.28432315587997437, -0.4825539290904999, -0.48192232847213745, 7.58596658706665, -2.870981454849243, 7.015787601470947, 36.706825256347656, -338.7579040527344, -76.28923034667969, -1.67138671875, 0.7451171875, -0.3955078125
131, 1146468021, 0.6585873365402222, -0.2916450798511505, -0.5036511421203613, -0.4770139157772064, 9.014606475830078, -2.835134744644165, 8.416849136352539, 44.351463317871094, -364.25762939453125, -89.44898223876953, -1.6962890625, 0.72119140625, -0.35205078125
132, 1146476354, 0.6418749094009399, -0.29798662662506104, -0.5255621075630188, -0.4722136855125427, 6.2719197273254395, -2.221036672592163, 9.48448371887207, 51.9528923034668, -374.8869934082031, -110.17497253417969, -1.68505859375, 0.70458984375, -0.31298828125
133, 1146484687, 0.6238285899162292, -0.30559417605400085, -0.5472820401191711, -0.4668331742286682, 9.499799728393555, 1.2800337076187134, 7.075192928314209, 38.25958251953125, -393.4714050292969, -103.70149230957031, -1.708984375, 0.681640625, -0.265625
134, 1146493020, 0.6043341159820557, -0.3167073130607605, -0.5671682953834534, -0.4612998962402344, 19.42835235595703, 5.512070178985596, 2.3084936141967773, -8.531834602355957, -411.7987365722656, -77.68892669677734, -1.69384765625, 0.6650390625, -0.2236328125
135, 1146501353, 0.5840325355529785, -0.33128178119659424, -0.5847072601318359, -0.455276221036911, 33.90977478027344, 7.521134376525879, 10.025782585144043, -51.88157272338867, -422.6764221191406, -41.41449737548828, -1.71142578125, 0.64990234375, -0.162109375
136, 1146509686, 0.5677496194839478, -0.341996967792511, -0.5976687669754028, -0.4511001706123352, 35.11583709716797, -2.555781364440918, 13.701035499572754, -46.09877014160156, -320.9979248046875, -41.35077667236328, -1.69140625, 0.6484375, -0.12255859375
137, 1146518019, 0.5530928373336792, -0.34260931611061096, -0.6101647615432739, -0.4521141052246094, 15.286561012268066, -11.029707908630371, 15.292245864868164, -5.1047468185424805, -216.88975524902344, -152.55291748046875, -1.7080078125, 0.62451171875, -0.09326171875
138, 1146526352, 0.5400761365890503, -0.34295088052749634, -0.6216120719909668, -0.4519973397254944, 6.283934593200684, -2.936157703399658, 17.19938850402832, 7.64107084274292, -198.84278869628906, -131.17259216308594, -1.7021484375, 0.60986328125, -0.0859375
139, 1146534685, 0.5282221436500549, -0.348399817943573, -0.6299932599067688, -0.4502312242984772, 8.676656723022461, 0.7242780327796936, 17.72243309020996, -29.759336471557617, -205.60321044921875, -53.4857177734375, -1.72021484375, 0.591796875, -0.05908203125
140, 1146543018, 0.5179944634437561, -0.3559865653514862, -0.6351486444473267, -0.4489348530769348, 13.75289535522461, -2.0845420360565186, 16.087600708007812, -61.545406341552734, -179.19012451171875, -12.976302146911621, -1.7099609375, 0.6015625, -0.05029296875
141, 1146551351, 0.5104365348815918, -0.36071574687957764, -0.6382104754447937, -0.4494742751121521, 12.682485580444336, -5.155291557312012, 15.759881019592285, -57.0716438293457, -114.20210266113281, -24.15586280822754, -1.72802734375, 0.5947265625, -0.02978515625
142, 1146559684, 0.5048797130584717, -0.36077284812927246, -0.6408050656318665, -0.4520054757595062, 6.384669780731201, -4.761045932769775, 15.70523738861084, -34.718048095703125, -54.796531677246094, -64.5909652709961, -1.72509765625, 0.6005859375, -0.03662109375
143, 1146568017, 0.49980106949806213, -0.3597530126571655, -0.6429646015167236, -0.4553832709789276, 4.290294170379639, -3.5409820079803467, 17.025728225708008, -35.03406524658203, -36.47316360473633, -74.6908187866211, -1.74951171875, 0.59326171875, -0.02783203125
144, 1146576350, 0.49672931432724, -0.3610301911830902, -0.644578218460083, -0.4554525315761566, 8.757049560546875, -6.564754962921143, 12.52840518951416, -15.04033088684082, -45.9863166809082, -16.5397891998291, -1.7509765625, 0.60791015625, -0.0380859375
145, 1146584683, 0.49847501516342163, -0.36059531569480896, -0.644573450088501, -0.4538940191268921, 9.087109565734863, -9.679092407226562, 11.405552864074707, 24.846046447753906, 10.670605659484863, 17.778636932373047, -1.77783203125, 0.6142578125, -0.0380859375
146, 1146593016, 0.5031628608703613, -0.35879144072532654, -0.6430169939994812, -0.45235586166381836, 6.558093547821045, -5.57760763168335, 8.94749641418457, 38.98112869262695, 55.716041564941406, 31.37635612487793, -1.77734375, 0.6396484375, -0.060546875
147, 1146601349, 0.5097407698631287, -0.35796844959259033, -0.6397113800048828, -0.45032569766044617, 2.027113914489746, -1.3655130863189697, 7.715036869049072, 34.96281433105469, 76.31829833984375, 64.02880096435547, -1.8037109375, 0.65625, -0.07421875
148, 1146609682, 0.5159686803817749, -0.35903894901275635, -0.6354772448539734, -0.4483710527420044, -0.9450914859771729, 0.402045875787735, 7.145750045776367, 13.571520805358887, 68.04306030273438, 82.34693908691406, -1.798828125, 0.6904296875, -0.1083984375
149, 1146618015, 0.5215404629707336, -0.3613296151161194, -0.6311525106430054, -0.4461878836154938, -0.07843120396137238, 0.01553690992295742, 5.943166732788086, 3.0932443141937256, 54.65142059326172, 91.24461364746094, -1.82275390625, 0.7177734375, -0.115234375
150, 1146626348, 0.5271719098091125, -0.36331093311309814, -0.6266707181930542, -0.44427424669265747, 1.314528465270996, -0.7841411828994751, 5.773968696594238, 2.327831745147705, 59.16450500488281, 87.57007598876953, -1.81103515625, 0.75390625, -0.14404296875
151, 1146634681, 0.5328040719032288, -0.3643845319747925, -0.6218354105949402, -0.443469762802124, 1.9296629428863525, 0.7348440885543823, 6.470113754272461, -2.828658103942871, 73.18736267089844, 73.68095397949219, -1.8349609375, 0.77978515625, -0.15478515625
152, 1146643014, 0.5384472012519836, -0.3644218444824219, -0.6165415644645691, -0.44401422142982483, 2.9567437171936035, 2.091404676437378, 6.961309432983398, -9.493549346923828, 89.3472671508789, 57.10459518432617, -1.82373046875, 0.81396484375, -0.185546875
153, 1146651347, 0.5444509983062744, -0.3632136583328247, -0.6105503439903259, -0.44595733284950256, 4.077211856842041, 1.816054105758667, 7.012764930725098, -14.598459243774414, 112.55783081054688, 42.08164978027344, -1.84912109375, 0.83740234375, -0.20263671875
154, 1146659680, 0.5510645508766174, -0.3606732487678528, -0.603518009185791, -0.44945457577705383, 4.329191207885742, 1.3646178245544434, 6.369028568267822, -20.988330841064453, 141.01927185058594, 28.01504898071289, -1.8349609375, 0.869140625, -0.2421875
155, 1146668013, 0.558085560798645, -0.35702380537986755, -0.5956454873085022, -0.4541827440261841, 3.75651478767395, 1.543931484222412, 5.664763927459717, -25.99634552001953, 164.11573791503906, 16.353361129760742, -1.86669921875, 0.89111328125, -0.265625
156, 1146676346, 0.5652273893356323, -0.35308027267456055, -0.5870093703269958, -0.4596446752548218, 3.523049831390381, 1.919075608253479, 5.350515842437744, -33.88846969604492, 176.00999450683594, 12.642739295959473, -1.85009765625, 0.92138671875, -0.30810546875
157, 1146684679, 0.5723766088485718, -0.3491443395614624, -0.5777180790901184, -0.46553847193717957, 4.306711673736572, 1.7996083498001099, 5.16806173324585, -41.57769012451172, 183.60867309570312, 12.7481050491333, -1.8759765625, 0.94482421875, -0.3388671875
158, 1146693012, 0.5798683762550354, -0.3450409770011902, -0.5675057172775269, -0.47184470295906067, 5.540725231170654, 1.3467093706130981, 5.239332675933838, -47.740814208984375, 196.2335205078125, 14.625115394592285, -1.85546875, 0.98291015625, -0.38671875
159, 1146701345, 0.5878095626831055, -0.3405640125274658, -0.5562115907669067, -0.47867047786712646, 6.196871757507324, 1.0538299083709717, 5.115352153778076, -53.750091552734375, 213.6550750732422, 15.777239799499512, -1.87890625, 1.01025390625, -0.4189453125
160, 1146709678, 0.5962144136428833, -0.33567461371421814, -0.5439325571060181, -0.48578694462776184, 6.593573570251465, 0.3764926493167877, 4.653414249420166, -56.89411544799805, 228.8468780517578, 17.783416748046875, -1.84765625, 1.05126953125, -0.4716796875
161, 1146718011, 0.6051368713378906, -0.3306535482406616, -0.5308060646057129, -0.49266988039016724, 6.801342487335205, 0.18596260249614716, 3.88503098487854, -57.39833450317383, 239.86544799804688, 26.238018035888672, -1.86376953125, 1.078125, -0.51416015625
162, 1146726344, 0.6143893599510193, -0.3256811201572418, -0.5169652700424194, -0.4992046654224396, 6.361072540283203, 0.21906502544879913, 3.702157735824585, -58.5367431640625, 245.91456604003906, 34.825355529785156, -1.818359375, 1.1201171875, -0.5654296875
163, 1146734677, 0.6236342191696167, -0.321102499961853, -0.5027845501899719, -0.5051555633544922, 6.343908309936523, 0.15845724940299988, 4.0738606452941895, -60.14397430419922, 243.80819702148438, 44.17946243286133, -1.82666015625, 1.15478515625, -0.61181640625
164, 1146743010, 0.6330590844154358, -0.31670477986335754, -0.4883267879486084, -0.5103644728660583, 7.463687419891357, -0.2228892296552658, 4.306732177734375, -57.623294830322266, 242.5100555419922, 54.1186408996582, -1.76513671875, 1.20361328125, -0.65966796875
165, 1146751343, 0.6428617835044861, -0.3117412328720093, -0.4736323356628418, -0.5149945020675659, 8.615436553955078, -0.8730053901672363, 4.210174560546875, -48.89790725708008, 248.94302368164062, 59.19135665893555, -1.75537109375, 1.23876953125, -0.70849609375
166, 1146759676, 0.6529995799064636, -0.3060136139392853, -0.4586423337459564, -0.5192255973815918, 8.915267944335938, -0.8828768730163574, 4.250854969024658, -40.12765884399414, 257.0663146972656, 61.23390197753906, -1.67529296875, 1.28125, -0.7529296875
167, 1146768009, 0.6632248759269714, -0.2997846007347107, -0.44353392720222473, -0.5230108499526978, 8.893877983093262, -0.5721044540405273, 4.6923909187316895, -33.363433837890625, 260.7613830566406, 63.34512710571289, -1.658203125, 1.3154296875, -0.80029296875
168, 1146776342, 0.6734907031059265, -0.29328519105911255, -0.4283035099506378, -0.5262611508369446, 9.24428653717041, -0.47839096188545227, 5.019397258758545, -28.270751953125, 261.49774169921875, 67.22334289550781, -1.56396484375, 1.353515625, -0.83544921875
169, 1146784675, 0.6837917566299438, -0.28653186559677124, -0.41298708319664, -0.5289334058761597, 9.703990936279297, -0.8858116865158081, 5.498082637786865, -23.067977905273438, 262.36907958984375, 71.82927703857422, -1.5361328125, 1.38623046875, -0.87890625
170, 1146793008, 0.6941663026809692, -0.2795482277870178, -0.39744043350219727, -0.531062662601471, 10.160209655761719, -0.8699164390563965, 5.96060848236084, -19.1301212310791, 264.1398620605469, 76.92848205566406, -1.42919921875, 1.41552734375, -0.9052734375
171, 1146801341, 0.7045388221740723, -0.27250298857688904, -0.3817174434661865, -0.532597005367279, 10.750186920166016, -0.5054683089256287, 6.250456809997559, -16.659732818603516, 264.3249816894531, 83.07687377929688, -1.38916015625, 1.43896484375, -0.94287109375
172, 1146809674, 0.7148513793945312, -0.2655024826526642, -0.3658254146575928, -0.5335429906845093, 11.547621726989746, -0.49291765689849854, 6.692203998565674, -15.390079498291016, 262.7777404785156, 89.07069396972656, -1.2802734375, 1.4580078125, -0.95849609375
173, 1146818007, 0.7250766158103943, -0.2583754062652588, -0.3497884273529053, -0.5339987874031067, 12.115126609802246, -0.4820403456687927, 6.891770839691162, -13.139034271240234, 263.23785400390625, 93.27622985839844, -1.22998046875, 1.47412109375, -0.98291015625
174, 1146826340, 0.7350524663925171, -0.25108107924461365, -0.3336394727230072, -0.5341737866401672, 12.061336517333984, -0.28416842222213745, 7.059484004974365, -11.753667831420898, 263.0662536621094, 93.708984375, -1.11767578125, 1.482421875, -0.98046875
175, 1146834673, 0.7444922924041748, -0.24387861788272858, -0.3177371025085449, -0.53413325548172, 11.794408798217773, -0.023329075425863266, 7.265048503875732, -11.808348655700684, 257.0150451660156, 91.64984893798828, -1.07080078125, 1.48974609375, -1.001953125
176, 1146843006, 0.7533335089683533, -0.23694056272506714, -0.3022178113460541, -0.5338658094406128, 11.942956924438477, -0.013452991843223572, 7.489557266235352, -12.646188735961914, 247.4691162109375, 89.32068634033203, -0.95751953125, 1.49072265625, -0.99072265625
177, 1146851339, 0.7615283131599426, -0.23032435774803162, -0.28701773285865784, -0.53352290391922, 12.373027801513672, 0.18027769029140472, 8.024019241333008, -15.500467300415039, 239.16842651367188, 85.77857208251953, -0.9150390625, 1.48828125, -1.00146484375
178, 1146859672, 0.7690848112106323, -0.22417619824409485, -0.2720232605934143, -0.5331581830978394, 13.495166778564453, 0.6257323622703552, 8.927506446838379, -20.7611141204834, 230.70909118652344, 82.40635681152344, -0.806640625, 1.48095703125, -0.96875
179, 1146868005, 0.7761090993881226, -0.2182188630104065, -0.25688886642456055, -0.5329578518867493, 15.164647102355957, 0.7731887698173523, 9.632781982421875, -26.12940216064453, 229.58877563476562, 78.023681640625, -0.77392578125, 1.4755859375, -0.9716796875
180, 1146876338, 0.7826644778251648, -0.2119571566581726, -0.24124886095523834, -0.5332077145576477, 15.872314453125, 0.800494372844696, 9.791671752929688, -29.515663146972656, 236.64979553222656, 70.12318420410156, -0.66943359375, 1.4609375, -0.93212890625
181, 1146884671, 0.7886602878570557, -0.2054852545261383, -0.22533740103244781, -0.5338677763938904, 15.306853294372559, 0.9759402871131897, 10.077363967895508, -32.30461120605469, 240.71414184570312, 61.799156188964844, -0.64208984375, 1.45263671875, -0.9228515625
182, 1146893004, 0.7940466403961182, -0.19913646578788757, -0.2095586657524109, -0.5347153544425964, 14.839570999145508, 1.0563780069351196, 10.351823806762695, -34.90424728393555, 236.7786407470703, 55.209407806396484, -0.54931640625, 1.43994140625, -0.86669921875
183, 1146901337, 0.798676073551178, -0.19305427372455597, -0.19393609464168549, -0.5359441637992859, 14.817195892333984, 1.9423264265060425, 9.844747543334961, -39.90302658081055, 232.20640563964844, 45.90937423706055, -0.5361328125, 1.42724609375, -0.857421875
184, 1146909670, 0.8022902607917786, -0.1876266747713089, -0.17843298614025116, -0.5378558039665222, 15.142005920410156, 3.847930669784546, 8.597307205200195, -50.6713981628418, 224.97726440429688, 32.27474594116211, -0.4560546875, 1.40966796875, -0.7890625
185, 1146918003, 0.8046544790267944, -0.1831905096769333, -0.1632278710603714, -0.5406752228736877, 15.206548690795898, 4.630414009094238, 7.2752275466918945, -64.916015625, 213.82676696777344, 14.757330894470215, -0.45751953125, 1.40234375, -0.765625
186, 1146926336, 0.805730938911438, -0.17966017127037048, -0.14875571429729462, -0.5444192290306091, 15.386465072631836, 4.021764278411865, 6.175760746002197, -74.76117706298828, 198.25584411621094, -4.924582481384277, -0.396484375, 1.380859375, -0.68310546875
187, 1146934669, 0.8056552410125732, -0.17703638970851898, -0.13490687310695648, -0.5489796996116638, 16.40667724609375, 4.003635406494141, 4.698223114013672, -84.70419311523438, 184.3851318359375, -22.22029685974121, -0.41455078125, 1.37548828125, -0.66845703125
188, 1146943002, 0.8046766519546509, -0.17519383132457733, -0.12167756259441376, -0.5540740489959717, 17.293581008911133, 3.8429627418518066, 2.2915751934051514, -91.83563995361328, 171.12669372558594, -35.05671310424805, -0.3759765625, 1.3564453125, -0.58544921875
189, 1146951335, 0.8028532266616821, -0.17424587905406952, -0.10933725535869598, -0.5595633387565613, 17.049650192260742, 3.1800599098205566, -0.6297165155410767, -97.6924819946289, 154.12942504882812, -46.46367263793945, -0.4033203125, 1.3623046875, -0.57470703125
190, 1146959668, 0.8001773953437805, -0.1745530664920807, -0.09831047058105469, -0.5653170347213745, 16.40839195251465, 2.676344871520996, -3.082491636276245, -103.85850524902344, 129.2519989013672, -57.23529815673828, -0.37255859375, 1.34326171875, -0.49169921875
191, 1146968001, 0.7969039082527161, -0.17661601305007935, -0.0894913375377655, -0.5707391500473022, 17.419269561767578, 2.994535207748413, -5.086498737335205, -107.02527618408203, 89.77445983886719, -61.12540054321289, -0.41455078125, 1.35009765625, -0.49365234375
192, 1146976334, 0.7939327955245972, -0.17961464822292328, -0.08324785530567169, -0.5748736262321472, 19.795024871826172, 3.5016725063323975, -7.252809047698975, -94.72881317138672, 51.433570861816406, -49.75598907470703, -0.3916015625, 1.333984375, -0.4228515625
193, 1146984667, 0.79206782579422, -0.18181240558624268, -0.07974713295698166, -0.5772467255592346, 20.681476593017578, 2.732125759124756, -9.453171730041504, -59.5682373046875, 24.749441146850586, -29.461545944213867, -0.42822265625, 1.3466796875, -0.4453125
194, 1146993000, 0.791273832321167, -0.1823876053094864, -0.07865694910287857, -0.5783029198646545, 19.496583938598633, 0.9528623223304749, -8.953293800354004, -18.629680633544922, 9.305619239807129, -14.417134284973145, -0.4033203125, 1.328125, -0.39208984375
195, 1147001333, 0.7911764979362488, -0.18204067647457123, -0.07975069433450699, -0.578395664691925, 17.971696853637695, 0.9586639404296875, -6.95060920715332, 11.553007125854492, -8.836298942565918, -4.872725009918213, -0.43212890625, 1.345703125, -0.43115234375
196, 1147009666, 0.7917913198471069, -0.1813243329524994, -0.08258330821990967, -0.5773810148239136, 16.3214168548584, 2.1018176078796387, -4.518077850341797, 32.40782928466797, -26.69007110595703, 8.098912239074707, -0.3974609375, 1.33642578125, -0.4013671875
197, 1147017999, 0.7930318713188171, -0.1806662529706955, -0.08697786182165146, -0.5752354860305786, 14.597333908081055, 2.157886505126953, -1.572777509689331, 47.012454986572266, -46.38819122314453, 21.536476135253906, -0.423828125, 1.353515625, -0.455078125
198, 1147026332, 0.7945840954780579, -0.1800994873046875, -0.09277841448783875, -0.5723575949668884, 13.026047706604004, 1.2023793458938599, 0.6003514528274536, 58.79463195800781, -63.715843200683594, 28.628276824951172, -0.38720703125, 1.34375, -0.43017578125
199, 1147034665, 0.7960408926010132, -0.179386168718338, -0.09902327507734299, -0.5695040225982666, 11.528104782104492, 0.8339440226554871, 2.635775089263916, 63.61972427368164, -67.65237426757812, 26.3004093170166, -0.41015625, 1.369140625, -0.49658203125
200, 1147042998, 0.7974281311035156, -0.17880213260650635, -0.10554090887308121, -0.5665687322616577, 10.361649513244629, 1.5375137329101562, 3.654623031616211, 64.2850570678711, -71.73739624023438, 26.17891502380371, -0.37158203125, 1.36083984375, -0.482421875
201, 1147051331, 0.7988184690475464, -0.17817547917366028, -0.11224894970655441, -0.5635102391242981, 9.025178909301758, 1.540068507194519, 4.431839466094971, 66.41764831542969, -74.0024185180664, 26.99751091003418, -0.396484375, 1.3828125, -0.546875
202, 1147059664, 0.8001822829246521, -0.17798574268817902, -0.11925244331359863, -0.5601864457130432, 8.295281410217285, 2.318669319152832, 6.063405513763428, 64.25465393066406, -81.08973693847656, 29.689332962036133, -0.3544921875, 1.37744140625, -0.53955078125
203, 1147067997, 0.8010685443878174, -0.17869219183921814, -0.1253623515367508, -0.5573537945747375, 5.249446868896484, 2.868955373764038, 14.179839134216309, 45.53302001953125, -77.97714233398438, 24.23213768005371, -0.390625, 1.3955078125, -0.60107421875
204, 1147076330, 0.8002465963363647, -0.18057675659656525, -0.1311405450105667, -0.556597113609314, -9.980063438415527, 0.4167517125606537, 28.43792152404785, 22.232513427734375, -80.9491195678711, -8.849106788635254, -0.361328125, 1.39208984375, -0.58837890625
205, 1147084663, 0.7956016063690186, -0.18344834446907043, -0.1378079354763031, -0.5606910586357117, -15.406402587890625, -6.466431140899658, 27.09139633178711, -0.06208984926342964, -93.38584899902344, -91.95437622070312, -0.4140625, 1.41357421875, -0.640625
206, 1147092996, 0.7953394055366516, -0.1877366602420807, -0.14674046635627747, -0.5573670864105225, 9.265850067138672, -6.096615314483643, 11.335705757141113, 27.000825881958008, -139.2962188720703, 20.005170822143555, -0.38720703125, 1.412109375, -0.62451171875
207, 1147101329, 0.7965935468673706, -0.1876876801252365, -0.15812358260154724, -0.5524577498435974, 18.426259994506836, -1.1569478511810303, -4.058322429656982, 100.35475158691406, -134.0918426513672, 33.85098648071289, -0.4326171875, 1.42236328125, -0.69580078125
208, 1147109662, 0.794832706451416, -0.1890917271375656, -0.16611343622207642, -0.55217045545578, 19.470661163330078, 5.497716426849365, -0.9309236407279968, 40.816307067871094, -102.42102813720703, -27.746196746826172, -0.40478515625, 1.423828125, -0.6982421875
209, 1147117995, 0.7952175140380859, -0.19189582765102386, -0.17441175878047943, -0.5480750799179077, 16.756078720092773, 3.57401180267334, 10.359054565429688, 42.14212417602539, -121.5892105102539, 32.542579650878906, -0.44677734375, 1.44287109375, -0.76953125
210, 1147126328, 0.7965304851531982, -0.19242174923419952, -0.17998190224170685, -0.5441693067550659, 6.512750148773193, -3.2559702396392822, 12.854879379272461, 48.478233337402344, -71.63941955566406, 39.22939682006836, -0.41357421875, 1.44140625, -0.77099609375
211, 1147134661, 0.796705424785614, -0.19097907841205597, -0.18526393175125122, -0.5426466464996338, -2.760111093521118, -3.9726903438568115, 11.5936918258667, 58.98484420776367, -50.480316162109375, 0.47152218222618103, -0.45654296875, 1.45751953125, -0.830078125
212, 1147142994, 0.7962123155593872, -0.19051173329353333, -0.19381506741046906, -0.5405436158180237, -1.4618650674819946, 0.7835992574691772, 7.209134578704834, 72.40557861328125, -96.57528686523438, -4.2283501625061035, -0.435546875, 1.44873046875, -0.82421875
213, 1147151327, 0.7948216795921326, -0.19266384840011597, -0.20272214710712433, -0.5385567545890808, 4.655909538269043, 8.103468894958496, 6.333067893981934, 43.72213363647461, -122.25887298583984, -6.15004301071167, -0.49365234375, 1.45556640625, -0.87109375
214, 1147159660, 0.793351948261261, -0.19518743455410004, -0.21154895424842834, -0.5364157557487488, 8.633307456970215, 6.476778984069824, 10.784893035888672, 39.27787780761719, -124.56150817871094, -3.779667615890503, -0.4794921875, 1.44775390625, -0.85791015625
215, 1147167993, 0.7924399375915527, -0.19651734828948975, -0.21771861612796783, -0.5348073244094849, 10.7958345413208, 0.4207465946674347, 11.349392890930176, 32.657352447509766, -83.9153823852539, -1.8417794704437256, -0.5400390625, 1.45654296875, -0.90380859375
216, 1147176326, 0.7918862104415894, -0.1954919695854187, -0.22116190195083618, -0.5345905423164368, 7.193918228149414, -4.321661949157715, 9.579548835754395, 35.0483283996582, -31.85011100769043, -14.013091087341309, -0.52001953125, 1.45361328125, -0.89501953125
217, 1147184659, 0.7916851043701172, -0.1939358413219452, -0.22392627596855164, -0.5343043804168701, 5.539080619812012, -6.57794713973999, 9.052658081054688, 37.02237319946289, -19.866613388061523, -10.495833396911621, -0.5732421875, 1.4619140625, -0.94482421875
218, 1147192992, 0.7920418381690979, -0.19173529744148254, -0.22624993324279785, -0.5335908532142639, 7.502626895904541, -5.1606879234313965, 7.812198162078857, 43.57889175415039, -9.56011962890625, -2.5171406269073486, -0.55224609375, 1.46240234375, -0.94140625
219, 1147201325, 0.7923653721809387, -0.1886940449476242, -0.22782301902770996, -0.5335252285003662, 9.261042594909668, -1.6058794260025024, 8.072281837463379, 45.14930725097656, 6.194878578186035, -10.490252494812012, -0.60205078125, 1.46923828125, -0.98876953125
220, 1147209658, 0.7926285266876221, -0.18521954119205475, -0.22824011743068695, -0.5341732501983643, 8.023564338684082, 0.11067081242799759, 8.752399444580078, 38.98475646972656, 23.823144912719727, -17.045080184936523, -0.57373046875, 1.46826171875, -0.9794921875
221, 1147217991, 0.7928361296653748, -0.18209527432918549, -0.22825898230075836, -0.5349308848381042, 6.068757057189941, -0.6787921786308289, 8.201028823852539, 31.76832389831543, 25.502763748168945, -16.5584774017334, -0.62158203125, 1.47412109375, -1.015625
222, 1147226324, 0.7930581569671631, -0.1794666051864624, -0.22850514948368073, -0.5353843569755554, 6.5248870849609375, -1.055132508277893, 7.604696750640869, 29.013517379760742, 18.85946273803711, -12.129481315612793, -0.5966796875, 1.4736328125, -1.0009765625
223, 1147234657, 0.793289065361023, -0.17660117149353027, -0.2283707559108734, -0.5360520482063293, 6.103270053863525, 0.6957154273986816, 7.510960102081299, 28.15614128112793, 25.113191604614258, -14.227293968200684, -0.64794921875, 1.47705078125, -1.0390625
224, 1147242990, 0.793450117111206, -0.1743711233139038, -0.2279995083808899, -0.536701500415802, 5.003483772277832, 2.205798864364624, 7.698422908782959, 19.35496711730957, 22.944061279296875, -11.950613975524902, -0.6259765625, 1.47802734375, -1.02685546875
225, 1147251323, 0.7936833500862122, -0.17290657758712769, -0.2277429699897766, -0.5369395017623901, 4.9027018547058105, 1.6000750064849854, 8.03003215789795, 13.324337005615234, 15.087519645690918, -4.823265075683594, -0.666015625, 1.48193359375, -1.0546875
226, 1147259656, 0.7938705682754517, -0.1719527244567871, -0.2275955229997635, -0.5370315313339233, 6.434192657470703, 0.8351093530654907, 8.633987426757812, 8.886822700500488, 9.825968742370605, -2.2078962326049805, -0.64404296875, 1.48193359375, -1.03466796875
227, 1147267989, 0.7940315008163452, -0.17101231217384338, -0.22729824483394623, -0.5372198224067688, 6.624014854431152, 0.20840850472450256, 8.799614906311035, 7.286494731903076, 11.316689491271973, -3.0785751342773438, -0.68798828125, 1.48779296875, -1.06689453125
228, 1147276322, 0.7941135168075562, -0.17023038864135742, -0.22709093987941742, -0.5374343395233154, 5.913264751434326, 0.4116387665271759, 8.530350685119629, 5.934703826904297, 9.164965629577637, -3.640986919403076, -0.6650390625, 1.4873046875, -1.04248046875
229, 1147284655, 0.794174313545227, -0.16969077289104462, -0.22680209577083588, -0.5376372337341309, 5.440893173217773, 0.9277780652046204, 9.131189346313477, 2.6903529167175293, 7.984738826751709, -2.746230125427246, -0.712890625, 1.49267578125, -1.068359375
230, 1147292988, 0.7941895723342896, -0.16940012574195862, -0.22653697431087494, -0.537818193435669, 3.0389955043792725, 0.6449187397956848, 8.603900909423828, 0.08871491253376007, 5.876559257507324, -2.0987792015075684, -0.69140625, 1.49609375, -1.04296875
231, 1147301321, 0.7940633296966553, -0.17012377083301544, -0.22694295644760132, -0.5376049876213074, 5.9468231201171875, 0.21303994953632355, 8.157089233398438, -5.106070041656494, -10.498764991760254, 2.7333338260650635, -0.73388671875, 1.4970703125, -1.06591796875
232, 1147309654, 0.7941206097602844, -0.17017614841461182, -0.22666724026203156, -0.5376198291778564, 5.782547950744629, -0.7255820035934448, 8.074682235717773, -3.122606039047241, 3.1913418769836426, 1.1178181171417236, -0.712890625, 1.50048828125, -1.04833984375
233, 1147317987, 0.7939956188201904, -0.17034228146076202, -0.2265983521938324, -0.5377809405326843, 3.4337215423583984, -1.1872767210006714, 7.937387943267822, -3.6942389011383057, -0.3114178776741028, -1.9740636348724365, -0.75732421875, 1.5048828125, -1.0751953125
234, 1147326320, 0.793857991695404, -0.1707579642534256, -0.22692036628723145, -0.5377166867256165, 5.663610935211182, -0.8300924301147461, 7.789109706878662, -2.877349853515625, -6.818510055541992, 0.27915674448013306, -0.7392578125, 1.5068359375, -1.0537109375
235, 1147334653, 0.79374760389328, -0.1706235706806183, -0.2268814742565155, -0.5379388928413391, 4.477063179016113, -0.7622982263565063, 7.707413196563721, -0.3487890362739563, 1.7723897695541382, -3.541065216064453, -0.7841796875, 1.50732421875, -1.0791015625
236, 1147342986, 0.7935250401496887, -0.1708405762910843, -0.22721196711063385, -0.5380584001541138, 4.790798187255859, -0.6596481800079346, 7.666934013366699, -1.4138033390045166, -5.279913902282715, -2.995072603225708, -0.7685546875, 1.51171875, -1.060546875
237, 1147351319, 0.7933728098869324, -0.171023890376091, -0.227370023727417, -0.5381579995155334, 6.886817455291748, -0.4570941627025604, 8.241596221923828, -2.0751373767852783, -3.1455304622650146, -1.9822601079940796, -0.80810546875, 1.51123046875, -1.0869140625
238, 1147359652, 0.7932500839233398, -0.1706428825855255, -0.22723723948001862, -0.5385158658027649, 4.311735153198242, -0.8551280498504639, 8.292888641357422, 1.170967698097229, 5.068737983703613, -5.641971588134766, -0.79052734375, 1.51171875, -1.06494140625
239, 1147367985, 0.7930344939231873, -0.1707347333431244, -0.2274901568889618, -0.5386974215507507, 4.951357841491699, -0.916374683380127, 8.370232582092285, -0.7776481509208679, -3.5085864067077637, -3.854916572570801, -0.830078125, 1.513671875, -1.0908203125
240, 1147376318, 0.7928261160850525, -0.17060153186321259, -0.22772930562496185, -0.5389450192451477, 6.122949123382568, -0.608869194984436, 7.822935581207275, 1.3664041757583618, -1.353071928024292, -5.174843788146973, -0.8173828125, 1.513671875, -1.0703125
241, 1147384651, 0.7926013469696045, -0.17040786147117615, -0.22788259387016296, -0.539271891117096, 5.776774883270264, 0.164097860455513, 7.9416399002075195, 1.1206356287002563, 0.004213541746139526, -6.165961265563965, -0.859375, 1.51171875, -1.091796875
242, 1147392984, 0.7924840450286865, -0.17001643776893616, -0.22789335250854492, -0.5395632386207581, 2.749300956726074, -0.6010938882827759, 7.872751712799072, 2.566328525543213, 3.4372637271881104, -5.252045154571533, -0.8447265625, 1.509765625, -1.078125
243, 1147401317, 0.7921427488327026, -0.1704329401254654, -0.22853493690490723, -0.539661705493927, 4.524293899536133, -0.38132452964782715, 7.616560935974121, -1.461471438407898, -10.744147300720215, -3.771235227584839, -0.8857421875, 1.5087890625, -1.1025390625
244, 1147409650, 0.7919668555259705, -0.170478954911232, -0.22878678143024445, -0.5397988557815552, 6.5732221603393555, 0.1586986780166626, 8.008136749267578, -0.06695561110973358, -2.986081838607788, -3.1960418224334717, -0.87646484375, 1.5068359375, -1.08642578125
245, 1147417983, 0.7918034195899963, -0.17036734521389008, -0.22888463735580444, -0.5400322675704956, 3.5809926986694336, -0.9333136081695557, 7.848744869232178, 0.2487526684999466, -0.025972837582230568, -4.305624961853027, -0.91357421875, 1.50634765625, -1.11181640625
246, 1147426316, 0.7914594411849976, -0.17080487310886383, -0.22957386076450348, -0.540105938911438, 6.656811237335205, -0.762916624546051, 7.891999244689941, -1.2764854431152344, -11.335938453674316, -3.548929452896118, -0.9052734375, 1.50732421875, -1.0986328125
247, 1147434649, 0.7912383675575256, -0.1705537885427475, -0.2296961396932602, -0.5404571294784546, 6.469216346740723, -0.11357339471578598, 8.19782829284668, 1.437662959098816, 0.8384691476821899, -6.513110160827637, -0.94775390625, 1.5, -1.12353515625
248, 1147442982, 0.7909395694732666, -0.17049293220043182, -0.23000389337539673, -0.5407823920249939, 3.9246881008148193, -1.2355955839157104, 8.108781814575195, 0.630507230758667, -2.7515323162078857, -6.628246784210205, -0.93896484375, 1.49609375, -1.107421875
249, 1147451315, 0.7904835343360901, -0.17067930102348328, -0.23069190979003906, -0.5410971641540527, 6.0584282875061035, -0.551112949848175, 7.863712310791016, 0.4481850564479828, -9.39473819732666, -7.80855131149292, -0.98388671875, 1.48876953125, -1.1298828125
250, 1147459648, 0.790062665939331, -0.17053022980690002, -0.23113909363746643, -0.5415679812431335, 5.3792853355407715, -0.13823311030864716, 7.777205467224121, 1.8767168521881104, -3.6585843563079834, -9.728595733642578, -0.97900390625, 1.48583984375, -1.11279296875
251, 1147467981, 0.7896054983139038, -0.1705758422613144, -0.23168787360191345, -0.5419856309890747, 4.699060440063477, -0.11602994054555893, 7.751918792724609, 0.6156767010688782, -6.599559307098389, -9.054991722106934, -1.02587890625, 1.48046875, -1.14111328125
252, 1147476314, 0.7891659140586853, -0.17077785730361938, -0.23226533830165863, -0.5423151850700378, 5.2307963371276855, -0.37832117080688477, 7.88883638381958, -0.5602089762687683, -8.081751823425293, -7.523336410522461, -1.02001953125, 1.47119140625, -1.12109375
253, 1147484647, 0.7887124419212341, -0.17086392641067505, -0.23292508721351624, -0.542664647102356, 4.943702220916748, -0.5577794909477234, 7.713614463806152, 1.2296500205993652, -8.250858306884766, -8.420552253723145, -1.06640625, 1.4609375, -1.14111328125
254, 1147492980, 0.78818678855896, -0.17104873061180115, -0.23365767300128937, -0.54305499792099, 5.243380546569824, -0.47203412652015686, 7.951130390167236, 0.3878123164176941, -9.773521423339844, -9.24156665802002, -1.0634765625, 1.45703125, -1.12060546875
255, 1147501313, 0.78764408826828, -0.17120623588562012, -0.23435159027576447, -0.5434936285018921, 4.607613563537598, -0.6305606365203857, 7.957623481750488, 0.21407099068164825, -9.232267379760742, -9.903412818908691, -1.111328125, 1.44140625, -1.140625
256, 1147509646, 0.7870309352874756, -0.1715247482061386, -0.2352755069732666, -0.5438819527626038, 5.300711154937744, -0.6346383690834045, 7.964182376861572, 0.1711159497499466, -13.133241653442383, -9.89367961883545, -1.11083984375, 1.435546875, -1.1181640625
257, 1147517979, 0.7863963842391968, -0.1715768575668335, -0.2359900325536728, -0.5444735884666443, 5.2821760177612305, -0.40631186962127686, 8.294535636901855, 0.7941823601722717, -8.602721214294434, -12.635300636291504, -1.16064453125, 1.42041015625, -1.13134765625
258, 1147526312, 0.7857196927070618, -0.1718447208404541, -0.2368696630001068, -0.5449838638305664, 4.850620269775391, -0.30198919773101807, 8.073491096496582, -0.15178999304771423, -12.196449279785156, -11.752913475036621, -1.15576171875, 1.40478515625, -1.107421875
259, 1147534645, 0.7850164175033569, -0.17215804755687714, -0.23786891996860504, -0.545462965965271, 6.15949010848999, -0.0043137869797647, 7.9608964920043945, 0.30512967705726624, -14.126229286193848, -11.75837230682373, -1.2080078125, 1.39453125, -1.12451171875
260, 1147542978, 0.7842820286750793, -0.17233088612556458, -0.2388494312763214, -0.5460360646247864, 4.743192672729492, -0.19459570944309235, 8.033053398132324, 1.2895104885101318, -12.618420600891113, -13.410181999206543, -1.20166015625, 1.384765625, -1.0966796875
261, 1147551311, 0.7834286093711853, -0.17304711043834686, -0.2402052879333496, -0.5464397072792053, 4.717919826507568, -0.17508643865585327, 8.016925811767578, -1.4679781198501587, -21.669832229614258, -11.592214584350586, -1.248046875, 1.3671875, -1.1044921875
262, 1147559644, 0.7818150520324707, -0.17521704733371735, -0.24161872267723083, -0.5474351644515991, 4.763132572174072, 0.31390875577926636, 8.177298545837402, -20.472904205322266, -34.18671417236328, -19.00636100769043, -1.23779296875, 1.35302734375, -1.0751953125
263, 1147567977, 0.7799587845802307, -0.17816203832626343, -0.24304652214050293, -0.5484995245933533, 7.503883361816406, -5.6719160079956055, 7.665910720825195, -29.498456954956055, -40.94694900512695, -19.042236328125, -1.29052734375, 1.341796875, -1.0732421875
264, 1147576310, 0.777420163154602, -0.17843446135520935, -0.24506421387195587, -0.5511109828948975, 3.4212841987609863, 0.17798662185668945, 8.751958847045898, -3.2420029640197754, -25.47906494140625, -51.151241302490234, -1.28076171875, 1.32470703125, -1.04296875
265, 1147584643, 0.7754020094871521, -0.18102307617664337, -0.24723942577838898, -0.5521373748779297, 5.725843906402588, 1.222058653831482, 7.565861701965332, -20.17592430114746, -46.978553771972656, -22.851699829101562, -1.3271484375, 1.30908203125, -1.04541015625
266, 1147592976, 0.7733666896820068, -0.18272340297698975, -0.24946171045303345, -0.5534307956695557, 7.50797176361084, -1.6453707218170166, 8.05253791809082, -11.304407119750977, -40.0057373046875, -28.96116065979004, -1.31640625, 1.294921875, -1.015625
267, 1147601309, 0.7712466716766357, -0.1837678998708725, -0.25162848830223083, -0.5550602674484253, 4.769055366516113, 1.4943065643310547, 8.300188064575195, -6.1106462478637695, -33.995819091796875, -35.29438781738281, -1.35791015625, 1.275390625, -1.01708984375
268, 1147609642, 0.7694661617279053, -0.18558239936828613, -0.25433963537216187, -0.5556914806365967, 4.201178073883057, 0.8920413255691528, 8.196402549743652, -5.818876266479492, -46.86775588989258, -20.822654724121094, -1.34375, 1.2626953125, -0.98583984375
269, 1147617975, 0.7677139639854431, -0.1874733567237854, -0.2574041783809662, -0.5560689568519592, 5.841675281524658, 0.859694242477417, 8.148222923278809, -2.958400249481201, -51.8632698059082, -18.560583114624023, -1.38623046875, 1.2451171875, -0.98828125
270, 1147626308, 0.7661217451095581, -0.18929195404052734, -0.2605888843536377, -0.5561656951904297, 5.091481685638428, 0.6907340288162231, 8.13287353515625, 0.11578946560621262, -52.620948791503906, -14.935776710510254, -1.36962890625, 1.232421875, -0.9609375
271, 1147634641, 0.7646052837371826, -0.19133631885051727, -0.26422548294067383, -0.555837094783783, 4.904539585113525, 0.8043619990348816, 7.948049068450928, 2.9295737743377686, -60.060123443603516, -10.246854782104492, -1.4150390625, 1.21435546875, -0.9677734375
272, 1147642974, 0.7631875276565552, -0.19365517795085907, -0.2682519257068634, -0.5550533533096313, 5.766697406768799, 0.9958188533782959, 7.7649641036987305, 4.924522876739502, -66.98393249511719, -4.722105503082275, -1.39404296875, 1.203125, -0.94287109375
273, 1147651307, 0.76187664270401, -0.19595535099506378, -0.2724577486515045, -0.5539973974227905, 6.528336524963379, 0.8003695011138916, 8.083427429199219, 7.790743350982666, -69.167236328125, -1.6096055507659912, -1.43359375, 1.18359375, -0.94482421875
274, 1147659640, 0.7607429623603821, -0.1979297250509262, -0.2767285108566284, -0.5527350306510925, 4.652817249298096, 0.1266745626926422, 8.113118171691895, 12.934332847595215, -67.14791107177734, 0.5198814272880554, -1.4169921875, 1.16943359375, -0.9189453125
275, 1147667973, 0.759428858757019, -0.20059345662593842, -0.28166648745536804, -0.5510851740837097, 5.100090980529785, 0.25364768505096436, 7.462561130523682, 11.79274845123291, -81.2178955078125, 3.996804714202881, -1.4560546875, 1.15478515625, -0.92041015625
276, 1147676306, 0.7580506205558777, -0.20337554812431335, -0.2868405282497406, -0.5492914319038391, 8.016289710998535, 0.5823631882667542, 8.01021957397461, 12.711954116821289, -85.12122344970703, 4.8331685066223145, -1.44287109375, 1.140625, -0.89892578125
277, 1147684639, 0.7568966150283813, -0.20558811724185944, -0.2917585074901581, -0.5474660396575928, 5.451587677001953, -0.06371252238750458, 7.76483154296875, 17.480798721313477, -77.46094512939453, 5.314970016479492, -1.48291015625, 1.12158203125, -0.89794921875
278, 1147692972, 0.755415678024292, -0.20848269760608673, -0.2974061667919159, -0.5453739762306213, 5.44687557220459, -0.05009247362613678, 7.385323524475098, 16.00675392150879, -92.14988708496094, 6.318938732147217, -1.4638671875, 1.10791015625, -0.87890625
279, 1147701305, 0.7538450360298157, -0.21148176491260529, -0.3032779097557068, -0.5431542992591858, 6.804943084716797, 0.09251116216182709, 7.749116897583008, 16.881114959716797, -96.09676361083984, 6.73961067199707, -1.509765625, 1.0908203125, -0.876953125
280, 1147709638, 0.7521525621414185, -0.21445681154727936, -0.30933713912963867, -0.5409122705459595, 5.497737407684326, -0.11584901064634323, 7.552063941955566, 18.254592895507812, -98.33763885498047, 5.429381847381592, -1.49267578125, 1.07666015625, -0.85205078125
281, 1147717971, 0.7500408291816711, -0.21803973615169525, -0.3160648047924042, -0.5385175943374634, 5.926095008850098, -0.46632295846939087, 7.3103461265563965, 16.368972778320312, -112.10565185546875, 4.492493152618408, -1.5341796875, 1.0556640625, -0.841796875
282, 1147726304, 0.7476173639297485, -0.2216993272304535, -0.32312703132629395, -0.5361970067024231, 7.024798393249512, -0.45093950629234314, 7.664309978485107, 16.784101486206055, -117.1582260131836, 0.7624556422233582, -1.51904296875, 1.04345703125, -0.81640625
283, 1147734637, 0.7449989318847656, -0.22538602352142334, -0.3303818702697754, -0.5338784456253052, 5.777163982391357, -0.4794434905052185, 7.418264389038086, 17.335134506225586, -120.29803466796875, -1.1767845153808594, -1.56396484375, 1.02001953125, -0.8056640625
284, 1147742970, 0.7418513298034668, -0.22958475351333618, -0.33850160241127014, -0.5313801169395447, 5.282437324523926, -0.5078300833702087, 7.085470676422119, 17.605146408081055, -135.7861328125, -3.562896251678467, -1.5498046875, 1.00634765625, -0.78369140625
285, 1147751303, 0.7381788492202759, -0.23457269370555878, -0.34746721386909485, -0.5285214185714722, 5.758818626403809, -0.6794988512992859, 8.303884506225586, 15.766291618347168, -153.85760498046875, -2.7295100688934326, -1.58740234375, 0.98974609375, -0.759765625
286, 1147759636, 0.7342454791069031, -0.23985470831394196, -0.3571145832538605, -0.525188684463501, 6.326638221740723, -1.1423413753509521, 9.706648826599121, 19.152502059936523, -165.6050262451172, -0.5972616672515869, -1.57568359375, 0.9775390625, -0.73583984375
287, 1147767969, 0.7295229434967041, -0.24553008377552032, -0.36781588196754456, -0.5217503309249878, 7.136520862579346, -0.8683134913444519, 7.68353271484375, 20.71540641784668, -183.40122985839844, -6.787182807922363, -1.619140625, 0.95751953125, -0.71484375
288, 1147776302, 0.7237058281898499, -0.252003014087677, -0.3798521161079407, -0.5181287527084351, 9.291089057922363, -0.601329505443573, 8.287222862243652, 19.514511108398438, -208.59405517578125, -13.267919540405273, -1.60693359375, 0.9443359375, -0.68408203125
289, 1147784635, 0.7172684073448181, -0.2587329149246216, -0.3922284245491028, -0.5145297050476074, 5.927118301391602, -1.2203034162521362, 9.511722564697266, 17.12272071838379, -217.05169677734375, -17.755434036254883, -1.64990234375, 0.92529296875, -0.6552734375
290, 1147792968, 0.709088921546936, -0.2666666507720947, -0.4063052833080292, -0.5108801126480103, 5.146927356719971, -2.0731616020202637, 7.974241733551025, 11.34545612335205, -251.85084533691406, -29.13802146911621, -1.63818359375, 0.91650390625, -0.62109375
291, 1147801301, 0.6992929577827454, -0.27536410093307495, -0.4224650263786316, -0.5066437721252441, 9.882587432861328, -1.8833484649658203, 7.873865127563477, 15.892273902893066, -288.7892150878906, -38.14921951293945, -1.68017578125, 0.89599609375, -0.5888671875
292, 1147809634, 0.6886094212532043, -0.2839447855949402, -0.43934088945388794, -0.5021680593490601, 7.993171691894531, -2.294757127761841, 8.320490837097168, 20.02811622619629, -300.8719787597656, -45.42436981201172, -1.67333984375, 0.88525390625, -0.5517578125
293, 1147817967, 0.6759538650512695, -0.2928031384944916, -0.45820820331573486, -0.49739208817481995, 4.414660453796387, -3.138467311859131, 8.24959659576416, 25.27182388305664, -334.80145263671875, -62.295616149902344, -1.70361328125, 0.86328125, -0.5048828125
294, 1147826300, 0.6610938906669617, -0.30203777551651, -0.479274183511734, -0.49196067452430725, 5.714237213134766, -2.567251682281494, 8.157078742980957, 32.064613342285156, -374.3070068359375, -77.78108215332031, -1.69970703125, 0.85009765625, -0.462890625
295, 1147834633, 0.6446420550346375, -0.3109742999076843, -0.5013068318367004, -0.48623472452163696, 6.8065643310546875, -1.6011019945144653, 8.18830394744873, 36.64865493774414, -392.8492736816406, -91.84282684326172, -1.7353515625, 0.8232421875, -0.40771484375
296, 1147842966, 0.6273132562637329, -0.3195302486419678, -0.523359477519989, -0.48007723689079285, 7.4392852783203125, -0.4761352837085724, 8.139726638793945, 39.37922668457031, -398.34576416015625, -96.6140365600586, -1.7265625, 0.81005859375, -0.361328125
297, 1147851299, 0.6097851991653442, -0.3286941945552826, -0.5443050861358643, -0.47313329577445984, 10.4203462600708, 1.9675673246383667, 6.916640281677246, 31.61126708984375, -397.7281799316406, -81.87895202636719, -1.759765625, 0.78564453125, -0.30615234375
298, 1147859632, 0.5920107364654541, -0.33946192264556885, -0.5632027387619019, -0.46593162417411804, 16.887845993041992, 4.377618789672852, 3.3408782482147217, 5.648640155792236, -393.9853515625, -60.083221435546875, -1.74755859375, 0.77587890625, -0.26318359375
299, 1147867965, 0.5740448832511902, -0.3528352379798889, -0.5802574157714844, -0.457473486661911, 27.279489517211914, 7.070937633514404, 4.906807899475098, -18.53559112548828, -403.0365295410156, -22.267301559448242, -1.7685546875, 0.763671875, -0.201171875
300, 1147876298, 0.5594179034233093, -0.3626885414123535, -0.5942721962928772, -0.44983309507369995, 29.044891357421875, -1.9926787614822388, 12.292264938354492, -0.19563432037830353, -326.2581481933594, -21.07430076599121, -1.7509765625, 0.76318359375, -0.1591796875
301, 1147884631, 0.5469614863395691, -0.36515378952026367, -0.6068390011787415, -0.44636666774749756, 18.955961227416992, -6.143902778625488, 10.899190902709961, 24.399452209472656, -230.8434600830078, -92.89241790771484, -1.76806640625, 0.74169921875, -0.125
302, 1147892964, 0.536415159702301, -0.36542198061943054, -0.618516206741333, -0.44290420413017273, 11.111696243286133, -3.5586585998535156, 13.528886795043945, 45.019203186035156, -194.721923828125, -95.09008026123047, -1.75634765625, 0.734375, -0.1171875
303, 1147901297, 0.527616024017334, -0.3677752614021301, -0.6274164915084839, -0.43898969888687134, 9.789896965026855, 0.045154914259910583, 14.270066261291504, 25.352497100830078, -174.3258819580078, -49.3966064453125, -1.77685546875, 0.72021484375, -0.09033203125
304, 1147909630, 0.5202422738075256, -0.37150973081588745, -0.6336665153503418, -0.435655802488327, 12.709454536437988, -1.5466727018356323, 13.083917617797852, 1.5282138586044312, -148.2596893310547, -19.730573654174805, -1.76416015625, 0.72705078125, -0.08740234375
305, 1147917963, 0.5153809785842896, -0.376027911901474, -0.636942446231842, -0.4327707588672638, 13.920266151428223, -3.586768627166748, 13.631234169006348, -12.968674659729004, -107.4282455444336, 14.180868148803711, -1.783203125, 0.72265625, -0.06298828125
306, 1147926296, 0.5127147436141968, -0.38029682636260986, -0.6377175450325012, -0.43106257915496826, 12.227508544921875, -4.639036655426025, 14.000354766845703, -25.041183471679688, -63.01435470581055, 29.597476959228516, -1.7666015625, 0.73828125, -0.07275390625
307, 1147934629, 0.5126403570175171, -0.38242897391319275, -0.6366360187530518, -0.4308633506298065, 8.264677047729492, -2.5154504776000977, 12.942729949951172, -20.66197395324707, -6.532046318054199, 25.347015380859375, -1.78369140625, 0.744140625, -0.06640625
308, 1147942962, 0.5133432745933533, -0.38111412525177, -0.6346887946128845, -0.43405258655548096, 1.970847249031067, -0.15114900469779968, 13.203310012817383, -27.063074111938477, 44.466163635253906, -19.635517120361328, -1.779296875, 0.7578125, -0.08349609375
309, 1147951295, 0.5130321383476257, -0.38095542788505554, -0.6332491636276245, -0.4366546869277954, 4.249937534332275, -2.924640655517578, 10.860614776611328, -32.38925552368164, 22.208053588867188, -14.03606128692627, -1.80615234375, 0.7578125, -0.0830078125
310, 1147959628, 0.514438807964325, -0.3812048137187958, -0.6307467818260193, -0.438400536775589, 4.445248126983643, -5.272850513458252, 6.901043891906738, -25.184165954589844, 37.528778076171875, 11.354593276977539, -1.79833984375, 0.7763671875, -0.10302734375
311, 1147967961, 0.5171421766281128, -0.3808170557022095, -0.6277424693107605, -0.43986669182777405, 1.63811457157135, -4.388345241546631, 7.03800106048584, -14.490452766418457, 54.90386199951172, 18.34142303466797, -1.81982421875, 0.7861328125, -0.1044921875
312, 1147976294, 0.5199058055877686, -0.38178184628486633, -0.6243518590927124, -0.4405971169471741, 3.287899971008301, -1.3583626747131348, 6.500491619110107, -19.764266967773438, 45.904541015625, 37.53493118286133, -1.81298828125, 0.81005859375, -0.13134765625
313, 1147984627, 0.5240793824195862, -0.3829929530620575, -0.6205371618270874, -0.4399903416633606, 5.469268798828125, -2.2151997089385986, 5.320892333984375, -5.225820064544678, 52.76033401489258, 60.080562591552734, -1.8359375, 0.8251953125, -0.13525390625
314, 1147992960, 0.529610276222229, -0.3826254606246948, -0.616628885269165, -0.4391813576221466, 5.260807514190674, -4.80613899230957, 5.43391227722168, 14.47019100189209, 73.25118255615234, 56.66179275512695, -1.8251953125, 0.85791015625, -0.16357421875
315, 1148001293, 0.5362751483917236, -0.37996527552604675, -0.612593412399292, -0.43905049562454224, 4.328271865844727, -3.3548176288604736, 5.710453033447266, 30.605039596557617, 101.46067810058594, 39.91133499145508, -1.84375, 0.87548828125, -0.1796875
316, 1148009626, 0.5434505343437195, -0.37640273571014404, -0.607646644115448, -0.4401690661907196, 3.4549245834350586, 1.734107255935669, 6.347763538360596, 23.913461685180664, 124.1874008178711, 30.814985275268555, -1.8271484375, 0.9013671875, -0.21826171875
317, 1148017959, 0.550211489200592, -0.3731778860092163, -0.6015852093696594, -0.44283369183540344, 3.320089340209961, 4.843908786773682, 6.314721584320068, -0.43588465452194214, 135.2848663330078, 25.467798233032227, -1.85302734375, 0.9248046875, -0.23828125
318, 1148026292, 0.5565192103385925, -0.3701961040496826, -0.5945821404457092, -0.44689375162124634, 3.3374505043029785, 3.0262339115142822, 5.875985622406006, -21.86349868774414, 144.05194091796875, 18.8677921295166, -1.83447265625, 0.9482421875, -0.2744140625
319, 1148034625, 0.5625975728034973, -0.3665525019168854, -0.5869332551956177, -0.45236414670944214, 3.288992404937744, 0.4610510468482971, 5.818939208984375, -33.484012603759766, 158.6575164794922, 4.6657280921936035, -1.857421875, 0.9619140625, -0.29833984375
320, 1148042958, 0.5687761306762695, -0.3620937466621399, -0.5786306858062744, -0.4588780403137207, 4.519989013671875, 0.655867338180542, 6.075345039367676, -39.13125228881836, 174.54443359375, -6.182938098907471, -1.8369140625, 0.99072265625, -0.3359375
321, 1148051291, 0.5754477381706238, -0.35697054862976074, -0.569155216217041, -0.466363787651062, 6.0253777503967285, 1.5301340818405151, 5.841732025146484, -46.64326477050781, 196.98623657226562, -10.00459098815918, -1.8642578125, 1.00927734375, -0.36767578125
322, 1148059624, 0.5825098752975464, -0.3510546386241913, -0.5583996176719666, -0.47500893473625183, 5.526015758514404, 1.321815848350525, 5.144697666168213, -55.69935607910156, 220.6240692138672, -16.711978912353516, -1.84228515625, 1.03466796875, -0.4111328125
323, 1148067957, 0.5894891619682312, -0.3451065719127655, -0.546781599521637, -0.48418453335762024, 3.9667437076568604, 0.3302377462387085, 4.727940559387207, -65.58768463134766, 229.99615478515625, -17.47058868408203, -1.86669921875, 1.0537109375, -0.4501953125
324, 1148076290, 0.5962154865264893, -0.34003570675849915, -0.5345838069915771, -0.4930756390094757, 3.9223155975341797, -0.31942546367645264, 4.597501277923584, -75.56906127929688, 225.26235961914062, -7.615184783935547, -1.833984375, 1.0869140625, -0.49365234375
325, 1148084623, 0.6030022501945496, -0.3358882665634155, -0.5217984914779663, -0.5012925863265991, 5.630782127380371, -0.8600018620491028, 4.429558277130127, -81.93724822998047, 221.45103454589844, 7.973654270172119, -1.85009765625, 1.111328125, -0.53369140625
326, 1148092956, 0.6105524301528931, -0.3322342336177826, -0.5081184506416321, -0.5085886120796204, 7.017789363861084, -1.863204002380371, 4.265082359313965, -82.001220703125, 226.3426055908203, 28.424219131469727, -1.80859375, 1.14794921875, -0.57177734375
327, 1148101289, 0.619057834148407, -0.3288383483886719, -0.49355626106262207, -0.5148159265518188, 7.258667469024658, -2.4467382431030273, 4.254717826843262, -78.56816864013672, 234.08755493164062, 50.03599166870117, -1.8134765625, 1.185546875, -0.61376953125
328, 1148109622, 0.6283317804336548, -0.3256327211856842, -0.47844260931015015, -0.5198613405227661, 6.881386756896973, -2.2951035499572754, 4.24730110168457, -72.531982421875, 236.95089721679688, 69.19036102294922, -1.7509765625, 1.22802734375, -0.6513671875
329, 1148117955, 0.6380705237388611, -0.32259684801101685, -0.46337538957595825, -0.5235276818275452, 6.943770408630371, -2.347327470779419, 4.487589359283447, -62.573795318603516, 232.57518005371094, 85.47342681884766, -1.73974609375, 1.26904296875, -0.69482421875
330, 1148126288, 0.6482781171798706, -0.3192291855812073, -0.44866669178009033, -0.525858461856842, 7.849966526031494, -2.797149419784546, 4.673756122589111, -46.42243576049805, 228.5194854736328, 96.71892547607422, -1.66259765625, 1.31201171875, -0.73095703125
331, 1148134621, 0.6588853001594543, -0.31487908959388733, -0.4342056214809418, -0.5274350047111511, 8.744132041931152, -2.767176389694214, 5.122175693511963, -29.532522201538086, 232.9312286376953, 99.32898712158203, -1.6396484375, 1.34912109375, -0.76904296875
332, 1148142954, 0.6696974039077759, -0.3094591796398163, -0.41967514157295227, -0.528785228729248, 8.957441329956055, -1.6471595764160156, 5.721113204956055, -18.03485679626465, 241.1994171142578, 96.62246704101562, -1.54736328125, 1.38671875, -0.80126953125
333, 1148151287, 0.6804176568984985, -0.30361828207969666, -0.40493467450141907, -0.5299776196479797, 8.898210525512695, -0.13622790575027466, 6.337363243103027, -15.233181953430176, 245.35842895507812, 96.0280532836914, -1.51708984375, 1.4140625, -0.83984375
334, 1148159620, 0.6908423900604248, -0.29779577255249023, -0.38993003964424133, -0.5310458540916443, 9.2189302444458, 0.4510100483894348, 6.877825736999512, -17.798961639404297, 245.1626434326172, 96.08291625976562, -1.41455078125, 1.44384765625, -0.8603515625
335, 1148167953, 0.7009289264678955, -0.29179108142852783, -0.3747631907463074, -0.5320805907249451, 9.991384506225586, -0.10030412673950195, 7.2783918380737305, -18.532272338867188, 246.4541015625, 93.77538299560547, -1.3740234375, 1.46923828125, -0.8984375
336, 1148176286, 0.7108345031738281, -0.28523963689804077, -0.3592885136604309, -0.5331652164459229, 10.700074195861816, -0.3282686769962311, 7.41244649887085, -16.424070358276367, 252.3162384033203, 90.2330322265625, -1.2724609375, 1.4853515625, -0.90576171875
337, 1148184619, 0.7204297780990601, -0.27816838026046753, -0.3435305655002594, -0.5344069600105286, 10.931185722351074, 0.26562508940696716, 7.561216354370117, -15.488044738769531, 258.3529052734375, 85.12124633789062, -1.2314453125, 1.505859375, -0.94189453125
338, 1148192952, 0.7295575141906738, -0.27099061012268066, -0.32747676968574524, -0.5357888340950012, 10.834861755371094, 0.8536290526390076, 7.882018089294434, -18.980138778686523, 260.020751953125, 80.775634765625, -1.12109375, 1.51416015625, -0.9384765625
339, 1148201285, 0.7381735444068909, -0.2640007734298706, -0.31134870648384094, -0.5370904207229614, 11.078778266906738, 0.7565708756446838, 8.299171447753906, -23.035310745239258, 257.1510925292969, 79.08181762695312, -1.08056640625, 1.525390625, -0.95361328125
340, 1148209618, 0.7464022040367126, -0.256923109292984, -0.2951650321483612, -0.5382867455482483, 11.784597396850586, 0.42275360226631165, 8.386590003967285, -23.433847427368164, 255.9518280029297, 76.96893310546875, -0.97314453125, 1.5224609375, -0.9384765625
341, 1148217951, 0.7542219758033752, -0.2496042251586914, -0.2789957523345947, -0.5394524931907654, 12.229996681213379, 0.5442950129508972, 8.529056549072266, -22.248184204101562, 256.194091796875, 73.3740463256836, -0.93408203125, 1.525390625, -0.9501953125
342, 1148226284, 0.7615745067596436, -0.2422698438167572, -0.2628081738948822, -0.5405941009521484, 12.17912769317627, 1.2671430110931396, 8.415196418762207, -23.657487869262695, 254.25657653808594, 70.0240249633789, -0.8271484375, 1.5166015625, -0.92724609375
343, 1148234617, 0.768220067024231, -0.2354806363582611, -0.24681265652179718, -0.5417295694351196, 11.99120807647705, 1.8224908113479614, 8.776091575622559, -30.34906578063965, 245.9800567626953, 66.29981231689453, -0.79296875, 1.51513671875, -0.93505859375
344, 1148242950, 0.7740187048912048, -0.22942711412906647, -0.23130296170711517, -0.5429161787033081, 12.93400764465332, 1.7032932043075562, 9.481877326965332, -37.34337615966797, 232.30369567871094, 60.24895477294922, -0.69384765625, 1.498046875, -0.892578125
345, 1148251283, 0.7791039347648621, -0.22363607585430145, -0.2161145657300949, -0.5443153977394104, 14.908479690551758, 0.9132130146026611, 10.10604476928711, -40.7402229309082, 225.67807006835938, 52.60401916503906, -0.6650390625, 1.4951171875, -0.88720703125
346, 1148259616, 0.7836555242538452, -0.2174557000398636, -0.20085667073726654, -0.5461263060569763, 16.315797805786133, 0.5518513917922974, 10.238903999328613, -39.88589096069336, 228.6814422607422, 43.14181137084961, -0.57666015625, 1.4755859375, -0.83203125
347, 1148267949, 0.7875555753707886, -0.21088796854019165, -0.18531441688537598, -0.5485813021659851, 16.121423721313477, 1.4874855279922485, 9.410584449768066, -41.64213562011719, 235.11801147460938, 31.200048446655273, -0.56689453125, 1.47119140625, -0.82763671875
348, 1148276282, 0.7906773686408997, -0.20484969019889832, -0.16987067461013794, -0.5513714551925659, 15.341236114501953, 2.3321216106414795, 8.246000289916992, -49.6800651550293, 228.73699951171875, 22.656953811645508, -0.48681640625, 1.4501953125, -0.7646484375
349, 1148284615, 0.7927798628807068, -0.19997242093086243, -0.15506620705127716, -0.5544964671134949, 15.689778327941895, 1.9908621311187744, 6.989537715911865, -61.17525863647461, 211.85043334960938, 12.304698944091797, -0.47998046875, 1.4482421875, -0.755859375
350, 1148292948, 0.7938429117202759, -0.19576367735862732, -0.14097809791564941, -0.5582258105278015, 16.957317352294922, 1.4518117904663086, 4.940824031829834, -67.08724212646484, 198.11643981933594, -2.8471834659576416, -0.4189453125, 1.42578125, -0.6796875
351, 1148301281, 0.7939202785491943, -0.1919703185558319, -0.12731043994426727, -0.5626997947692871, 16.887359619140625, 1.6543108224868774, 2.5266342163085938, -72.55306243896484, 190.7018585205078, -18.776674270629883, -0.4345703125, 1.42236328125, -0.6708984375
352, 1148309614, 0.7931549549102783, -0.1890687495470047, -0.11438527703285217, -0.5675163269042969, 15.487411499023438, 1.8360517024993896, 0.8477697372436523, -79.31255340576172, 174.90245056152344, -29.519439697265625, -0.3896484375, 1.40234375, -0.59228515625
353, 1148317947, 0.7917028069496155, -0.18798662722110748, -0.10308793187141418, -0.5720500946044922, 15.341218948364258, 1.4599518775939941, -0.3199371099472046, -87.8493881225586, 141.349853515625, -33.08082580566406, -0.41455078125, 1.40869140625, -0.5849609375
354, 1148326280, 0.7898589372634888, -0.18850070238113403, -0.09353546798229218, -0.5760573148727417, 17.009653091430664, 1.064241886138916, -2.0001745223999023, -91.71485900878906, 107.71781158447266, -32.74709701538086, -0.38330078125, 1.38623046875, -0.50830078125
355, 1148334613, 0.7878669500350952, -0.18949835002422333, -0.0853009968996048, -0.5797243714332581, 17.80298614501953, 1.2044016122817993, -4.566579818725586, -86.52476501464844, 88.65888214111328, -32.953243255615234, -0.41064453125, 1.39404296875, -0.51220703125
356, 1148342946, 0.786042332649231, -0.1903173178434372, -0.07861150801181793, -0.5828703045845032, 16.35544776916504, 1.3344937562942505, -5.847555160522461, -71.17343139648438, 72.08309173583984, -30.25828742980957, -0.38671875, 1.3720703125, -0.4453125
357, 1148351279, 0.7846876382827759, -0.19143332540988922, -0.07487156987190247, -0.5848193764686584, 15.45939826965332, 1.2805416584014893, -5.794600963592529, -48.268218994140625, 35.295860290527344, -20.902904510498047, -0.42431640625, 1.3798828125, -0.45751953125
358, 1148359612, 0.7840543389320374, -0.19247984886169434, -0.07405301183462143, -0.5854289531707764, 16.395069122314453, 1.2993597984313965, -5.5575714111328125, -20.698638916015625, 1.517656683921814, -8.447628021240234, -0.396484375, 1.36181640625, -0.40771484375
359, 1148367945, 0.7840650081634521, -0.1927264779806137, -0.07504832744598389, -0.5852068066596985, 16.32869529724121, 1.6642460823059082, -4.956564903259277, 5.032904148101807, -13.117283821105957, 0.12629100680351257, -0.42529296875, 1.373046875, -0.4384765625
360, 1148376278, 0.7845091223716736, -0.19252173602581024, -0.07728024572134018, -0.584388017654419, 14.509275436401367, 1.9904110431671143, -2.7345223426818848, 21.661399841308594, -23.916053771972656, 6.279475212097168, -0.39013671875, 1.35888671875, -0.41015625
361, 1148384611, 0.7852014899253845, -0.1926434189081192, -0.08104897290468216, -0.5829057097434998, 12.88536262512207, 2.0649476051330566, -0.4150792360305786, 31.805910110473633, -44.64727020263672, 11.738434791564941, -0.41650390625, 1.37939453125, -0.46240234375
362, 1148392944, 0.7860832810401917, -0.19323648512363434, -0.08594828099012375, -0.5808153748512268, 12.184375762939453, 1.7794816493988037, 1.3956636190414429, 37.001747131347656, -61.93925857543945, 17.343597412109375, -0.3798828125, 1.37353515625, -0.43896484375
363, 1148401277, 0.78690105676651, -0.19390270113945007, -0.0912456214427948, -0.5786738395690918, 11.3916015625, 1.493202805519104, 2.6623260974884033, 39.237831115722656, -67.13028717041016, 16.420875549316406, -0.40771484375, 1.392578125, -0.49267578125
364, 1148409610, 0.7876400947570801, -0.1945790797472, -0.09697140753269196, -0.5765061378479004, 11.037495613098145, 1.083236575126648, 3.0147175788879395, 42.394474029541016, -71.8834228515625, 14.947833061218262, -0.373046875, 1.3837890625, -0.47216796875
365, 1148417943, 0.7884381413459778, -0.19460569322109222, -0.10345418751239777, -0.5742751955986023, 10.956158638000488, 0.35334861278533936, 2.6053290367126465, 55.64109420776367, -75.15618133544922, 13.210785865783691, -0.40234375, 1.40087890625, -0.52587890625
366, 1148426276, 0.7891558408737183, -0.1944812387228012, -0.11093579977750778, -0.571929931640625, 11.645466804504395, 1.3864728212356567, 2.501193046569824, 65.14179992675781, -85.04708862304688, 10.932024002075195, -0.37109375, 1.3955078125, -0.52099609375
367, 1148434609, 0.7896749377250671, -0.1945430487394333, -0.11844335496425629, -0.5696825981140137, 8.375388145446777, 2.5292210578918457, 8.942976951599121, 62.617366790771484, -87.00064086914062, 8.515244483947754, -0.40576171875, 1.4189453125, -0.58349609375
368, 1148442942, 0.7888036966323853, -0.19827960431575775, -0.12709861993789673, -0.5677330493927002, -3.26365327835083, 1.3002625703811646, 23.28569221496582, 27.520421981811523, -129.526123046875, -2.682441234588623, -0.375, 1.42041015625, -0.58349609375
369, 1148451275, 0.786038875579834, -0.2033664882183075, -0.13796311616897583, -0.5672320127487183, -1.3650705814361572, -6.942933082580566, 25.641389846801758, 22.4046573638916, -163.5894317626953, -36.85589599609375, -0.41845703125, 1.443359375, -0.64111328125
370, 1148459608, 0.7872154712677002, -0.20414267480373383, -0.1466095894575119, -0.5631373524665833, 14.167871475219727, -10.793794631958008, 14.05275821685791, 69.54695892333984, -108.38520050048828, 30.777347564697266, -0.39208984375, 1.44384765625, -0.63623046875
371, 1148467941, 0.7885651588439941, -0.19890175759792328, -0.1535891890525818, -0.5612609386444092, 10.278651237487793, -3.6859748363494873, 2.315143346786499, 117.78378295898438, -37.34172439575195, 0.6349982023239136, -0.4345703125, 1.451171875, -0.697265625
372, 1148476274, 0.7877726554870605, -0.19773998856544495, -0.16140122711658478, -0.5605918765068054, 5.722484111785889, 6.099940776824951, 3.29544997215271, 71.5859603881836, -78.91764068603516, -22.655410766601562, -0.40966796875, 1.4482421875, -0.6962890625
373, 1148484607, 0.7885772585868835, -0.20164909958839417, -0.17092961072921753, -0.5552180409431458, 9.695799827575684, 7.919633388519287, 8.14604663848877, 44.647247314453125, -146.0088653564453, 47.21525573730469, -0.46142578125, 1.4619140625, -0.7587890625
374, 1148492940, 0.7896581292152405, -0.20484529435634613, -0.17830288410186768, -0.5501700639724731, 8.51482105255127, 1.8086254596710205, 11.678328514099121, 35.94178009033203, -115.47262573242188, 50.09260177612305, -0.42822265625, 1.45947265625, -0.7626953125
375, 1148501273, 0.7890613675117493, -0.20473945140838623, -0.18479172885417938, -0.5489231944084167, 3.3929054737091064, 0.6760250329971313, 12.206661224365234, 51.04294204711914, -74.46015167236328, -9.483996391296387, -0.47119140625, 1.4765625, -0.82666015625
376, 1148509606, 0.7876892685890198, -0.20502619445323944, -0.190296933054924, -0.5489058494567871, 2.3114500045776367, 7.389900207519531, 9.486916542053223, 34.0504264831543, -65.08242797851562, -24.895401000976562, -0.45361328125, 1.474609375, -0.8134765625
377, 1148517939, 0.7862083315849304, -0.2075689136981964, -0.19616879522800446, -0.5480056405067444, 3.906872272491455, 7.674582004547119, 8.856649398803711, 14.38512134552002, -89.0335693359375, -11.298418045043945, -0.51025390625, 1.48974609375, -0.8544921875
378, 1148526272, 0.7852500677108765, -0.2113504409790039, -0.20218439400196075, -0.5457432866096497, 8.35039234161377, 0.34148669242858887, 9.648565292358398, 7.2260355949401855, -102.24454498291016, 10.325053215026855, -0.49365234375, 1.48388671875, -0.83935546875
379, 1148534605, 0.7853572964668274, -0.21304644644260406, -0.2067825347185135, -0.5432008504867554, 11.416101455688477, -7.492454528808594, 7.836742401123047, 22.999507904052734, -69.29383850097656, 19.640825271606445, -0.5498046875, 1.49658203125, -0.88037109375
380, 1148542938, 0.7857308983802795, -0.21093711256980896, -0.21001240611076355, -0.5422434210777283, 8.872321128845215, -11.127405166625977, 7.218921184539795, 50.12386703491211, -20.540081024169922, -2.2578749656677246, -0.52587890625, 1.49560546875, -0.875
381, 1148551271, 0.7859519124031067, -0.207162544131279, -0.2128702849149704, -0.5422639846801758, 6.815088748931885, -6.9677019119262695, 8.171815872192383, 62.10067367553711, -1.8585755825042725, -17.73641014099121, -0.578125, 1.50830078125, -0.9267578125
382, 1148559604, 0.7861577272415161, -0.20300234854221344, -0.21504083275794983, -0.5426823496818542, 6.081676483154297, -0.6039916276931763, 7.811255931854248, 59.931514739990234, 9.696674346923828, -21.300874710083008, -0.5595703125, 1.50732421875, -0.9248046875
383, 1148567937, 0.7863419055938721, -0.199612095952034, -0.2164047360420227, -0.5431307554244995, 6.419643402099609, 0.8147522211074829, 8.957173347473145, 45.44301986694336, 12.528629302978516, -17.275379180908203, -0.6044921875, 1.51708984375, -0.96337890625
384, 1148576270, 0.7866202592849731, -0.19680260121822357, -0.2173243761062622, -0.5433858036994934, 7.486654281616211, -1.7882369756698608, 9.185646057128906, 36.68136978149414, 12.904637336730957, -11.524989128112793, -0.58251953125, 1.515625, -0.95068359375
385, 1148584603, 0.7868593335151672, -0.1936269998550415, -0.21786536276340485, -0.5439634919166565, 7.090762138366699, -2.0701818466186523, 7.971302509307861, 36.73811721801758, 20.332448959350586, -15.388264656066895, -0.630859375, 1.52392578125, -0.99072265625
386, 1148592936, 0.786973774433136, -0.1905665099620819, -0.21837696433067322, -0.5446730852127075, 5.645842552185059, 0.34932321310043335, 7.712790489196777, 34.547420501708984, 19.922515869140625, -17.317813873291016, -0.61279296875, 1.5234375, -0.98193359375
387, 1148601269, 0.7870575189590454, -0.18817295134067535, -0.21873386204242706, -0.5452408194541931, 4.952924728393555, 1.8693147897720337, 7.83839750289917, 26.515432357788086, 15.98210620880127, -13.610393524169922, -0.662109375, 1.52880859375, -1.017578125
388, 1148609602, 0.7871415615081787, -0.18649157881736755, -0.21896448731422424, -0.5456045269966125, 5.1047163009643555, 1.7158095836639404, 7.513809680938721, 18.475006103515625, 11.63546371459961, -8.926948547363281, -0.642578125, 1.52880859375, -1.001953125
389, 1148617935, 0.7872349619865417, -0.18530243635177612, -0.21902723610401154, -0.5458496809005737, 5.288508415222168, 1.0732017755508423, 7.671245574951172, 12.26795482635498, 9.328874588012695, -5.664769649505615, -0.6865234375, 1.5390625, -1.03271484375
390, 1148626268, 0.7872976064682007, -0.18447518348693848, -0.21898022294044495, -0.5460585355758667, 6.445977210998535, 0.620107889175415, 8.598820686340332, 7.553318500518799, 7.7638421058654785, -4.122687816619873, -0.66552734375, 1.541015625, -1.01611328125
391, 1148634601, 0.7874854207038879, -0.18358224630355835, -0.2185947149991989, -0.5462431907653809, 6.1024885177612305, -0.6503214836120605, 9.194770812988281, 6.117077350616455, 12.090086936950684, -2.269498348236084, -0.71044921875, 1.5458984375, -1.037109375
392, 1148642934, 0.7874834537506104, -0.18266430497169495, -0.2183961570262909, -0.5466328859329224, 4.705192565917969, 0.1813203990459442, 8.99661636352539, 6.689351558685303, 10.342225074768066, -6.452381610870361, -0.68994140625, 1.54736328125, -1.01513671875
393, 1148651267, 0.7875502109527588, -0.1824508011341095, -0.21832148730754852, -0.5466379523277283, 5.652950763702393, 0.4071634113788605, 9.104513168334961, 1.327111840248108, 2.80407977104187, 0.022758249193429947, -0.734375, 1.5498046875, -1.04052734375
394, 1148659600, 0.7876039147377014, -0.18211977183818817, -0.21812543272972107, -0.5467491745948792, 4.908514022827148, -0.12078040838241577, 8.537172317504883, 1.326497197151184, 5.364555835723877, -1.2591958045959473, -0.71728515625, 1.55419921875, -1.02099609375
395, 1148667933, 0.7874895334243774, -0.18229566514492035, -0.2181246429681778, -0.546855628490448, 4.903643608093262, 0.12162742018699646, 8.052080154418945, -3.092637300491333, -1.2133463621139526, -1.453070044517517, -0.76025390625, 1.5595703125, -1.0478515625
396, 1148676266, 0.787429928779602, -0.18256698548793793, -0.2180631458759308, -0.5468752384185791, 4.770206928253174, -0.8387545943260193, 7.928562641143799, -4.192538261413574, -1.198541283607483, 0.3535916805267334, -0.74169921875, 1.56396484375, -1.02734375
397, 1148684599, 0.7872369885444641, -0.18301373720169067, -0.21823106706142426, -0.5469366908073425, 5.368577480316162, -0.8898375034332275, 7.742063522338867, -4.818985939025879, -5.424787998199463, -1.1683677434921265, -0.78662109375, 1.57080078125, -1.05517578125
398, 1148692932, 0.7871802449226379, -0.18333187699317932, -0.2182435542345047, -0.5469068288803101, 5.737425327301025, -1.5824499130249023, 7.745919227600098, -3.9889309406280518, -2.474437713623047, 0.863494336605072, -0.77294921875, 1.5732421875, -1.03662109375
399, 1148701265, 0.7869990468025208, -0.1833776831626892, -0.21836145222187042, -0.5471053123474121, 4.201575756072998, -1.5182530879974365, 7.618399143218994, -1.2374749183654785, -1.487392783164978, -3.6422159671783447, -0.8115234375, 1.57568359375, -1.0615234375
400, 1148709598, 0.7867597937583923, -0.18364879488945007, -0.21872755885124207, -0.5472121834754944, 6.319364547729492, -0.9266242980957031, 8.135908126831055, -1.6862106323242188, -6.154588222503662, -3.025655746459961, -0.80322265625, 1.58203125, -1.03857421875
401, 1148717931, 0.7865715026855469, -0.18351197242736816, -0.21868880093097687, -0.5475441813468933, 5.515666484832764, -0.6220138669013977, 8.372071266174316, -0.8609457015991211, 1.8988984823226929, -5.292515754699707, -0.837890625, 1.58349609375, -1.06298828125
402, 1148726264, 0.7862914204597473, -0.18368592858314514, -0.21890443563461304, -0.5478020906448364, 5.207412242889404, -0.959026038646698, 8.172934532165527, -2.32257080078125, -3.5432939529418945, -4.881509780883789, -0.8251953125, 1.5830078125, -1.04443359375
403, 1148734597, 0.7860157489776611, -0.18367904424667358, -0.21908380091190338, -0.5481283068656921, 5.573533058166504, -1.1167614459991455, 8.046894073486328, -0.8281850218772888, -1.715999960899353, -6.047853469848633, -0.873046875, 1.58447265625, -1.064453125
404, 1148742930, 0.7856738567352295, -0.18368199467658997, -0.21931572258472443, -0.548524022102356, 5.142376899719238, -0.6405361890792847, 7.931305408477783, -0.9192436933517456, -2.272648811340332, -7.391986846923828, -0.85791015625, 1.58544921875, -1.05029296875
405, 1148751263, 0.7853824496269226, -0.18368394672870636, -0.21957536041736603, -0.5488368272781372, 4.969155311584473, -0.6306403875350952, 7.690356254577637, -0.31774455308914185, -2.731015205383301, -6.198056221008301, -0.90087890625, 1.58203125, -1.07470703125
406, 1148759596, 0.785050630569458, -0.18373170495033264, -0.2199164777994156, -0.549159049987793, 4.495832920074463, -0.7548884153366089, 7.397213935852051, -0.33244720101356506, -3.950791597366333, -6.665977478027344, -0.8916015625, 1.58251953125, -1.05615234375
407, 1148767929, 0.7846863865852356, -0.18382591009140015, -0.2203693389892578, -0.5494665503501892, 5.698075294494629, -0.5517682433128357, 7.446640968322754, -0.022847900167107582, -5.746707439422607, -6.8989129066467285, -0.9326171875, 1.58203125, -1.08154296875
408, 1148776262, 0.7844266891479492, -0.18355505168437958, -0.22046780586242676, -0.5498881340026855, 4.719727039337158, -0.6379494071006775, 7.981931209564209, 1.1527304649353027, 1.5403763055801392, -7.545954704284668, -0.923828125, 1.57568359375, -1.0595703125
409, 1148784595, 0.7841118574142456, -0.1834065318107605, -0.22086581587791443, -0.5502269864082336, 4.509228706359863, -1.3226603269577026, 7.711875915527344, 2.214440107345581, -3.091766119003296, -7.4622721672058105, -0.96826171875, 1.57568359375, -1.0859375
410, 1148792928, 0.7837980389595032, -0.18320779502391815, -0.22120976448059082, -0.5506020188331604, 6.793025016784668, -0.8940966129302979, 8.13025188446045, 2.236135482788086, -1.937665581703186, -7.852607250213623, -0.96044921875, 1.5693359375, -1.072265625
411, 1148801261, 0.7835602760314941, -0.18246692419052124, -0.2211262434720993, -0.5512197613716125, 4.449025630950928, -1.108033537864685, 8.175481796264648, 4.29931116104126, 7.520045280456543, -10.473122596740723, -1.0068359375, 1.5625, -1.095703125
412, 1148809594, 0.7831935286521912, -0.18203040957450867, -0.22151519358158112, -0.5517286062240601, 5.134732723236084, -0.7462537884712219, 7.875154495239258, 4.605682373046875, -0.4490687847137451, -10.535210609436035, -1, 1.5595703125, -1.0810546875
413, 1148817927, 0.7828966975212097, -0.18148592114448547, -0.22159819304943085, -0.5522956252098083, 6.049030303955078, -0.2434682697057724, 7.7957000732421875, 3.448047637939453, 3.929569721221924, -10.195388793945312, -1.0478515625, 1.5556640625, -1.109375
414, 1148826260, 0.782590925693512, -0.18081949651241302, -0.22161108255386353, -0.5529419183731079, 4.160036563873291, -0.473511666059494, 7.655786514282227, 3.963866949081421, 5.870155334472656, -11.3110933303833, -1.0400390625, 1.546875, -1.09423828125
415, 1148834593, 0.7822378277778625, -0.1804662048816681, -0.22203457355499268, -0.553386926651001, 5.495171070098877, -0.20663832128047943, 7.497593879699707, 4.212094783782959, -1.6625434160232544, -9.574524879455566, -1.0849609375, 1.54052734375, -1.12158203125
416, 1148842926, 0.7819666266441345, -0.17992986738681793, -0.2220819890499115, -0.5539257526397705, 5.330802917480469, -0.21622875332832336, 8.071592330932617, 3.2354750633239746, 4.342727184295654, -9.583694458007812, -1.08349609375, 1.53125, -1.09912109375
417, 1148851259, 0.781665027141571, -0.17939357459545135, -0.22226189076900482, -0.5544527769088745, 3.5793099403381348, -0.9786074757575989, 7.893013954162598, 4.20561408996582, 2.7114334106445312, -10.016805648803711, -1.13037109375, 1.51708984375, -1.1162109375
418, 1148859592, 0.7813272476196289, -0.17908704280853271, -0.22270655632019043, -0.5548495650291443, 5.297532558441162, -0.6426035761833191, 7.8219475746154785, 4.061380386352539, -2.235943555831909, -8.843596458435059, -1.12841796875, 1.509765625, -1.1005859375
419, 1148867925, 0.7809938192367554, -0.17860859632492065, -0.22297334671020508, -0.5553658604621887, 6.125183582305908, -0.5596837401390076, 7.670934677124023, 4.198058605194092, 1.2127444744110107, -10.185297966003418, -1.1806640625, 1.49609375, -1.1171875
420, 1148876258, 0.7806608080863953, -0.17803852260112762, -0.22302277386188507, -0.5559970140457153, 5.097955703735352, -0.4934388995170593, 8.363682746887207, 3.1723873615264893, 4.608091354370117, -11.159483909606934, -1.17919921875, 1.48291015625, -1.09619140625
421, 1148884591, 0.7802878618240356, -0.17750012874603271, -0.22331802546977997, -0.5565739274024963, 3.4230093955993652, -1.128529667854309, 8.233366012573242, 4.779655456542969, 1.392633318901062, -11.388602256774902, -1.22216796875, 1.4677734375, -1.11376953125
422, 1148892924, 0.7798357605934143, -0.17732037603855133, -0.22396400570869446, -0.5570048689842224, 5.803035736083984, -0.23291274905204773, 8.379440307617188, 3.8678131103515625, -5.639434337615967, -10.181684494018555, -1.21875, 1.4521484375, -1.0869140625
423, 1148901257, 0.7794590592384338, -0.17683608829975128, -0.22429877519607544, -0.5575512051582336, 4.373219013214111, -0.5704820156097412, 8.444103240966797, 4.5813493728637695, 0.46941933035850525, -11.023470878601074, -1.2705078125, 1.43505859375, -1.0966796875
424, 1148909590, 0.7789279818534851, -0.1766892969608307, -0.2252545952796936, -0.5579544901847839, 4.0647969245910645, -0.7657710313796997, 7.922573089599609, 5.791392803192139, -9.526832580566406, -11.14255428314209, -1.26171875, 1.42138671875, -1.0712890625
425, 1148917923, 0.7783594131469727, -0.176828995347023, -0.22631843388080597, -0.5582730770111084, 6.6744771003723145, 0.33566948771476746, 8.168335914611816, 3.722376823425293, -13.27698802947998, -9.898622512817383, -1.30908203125, 1.40478515625, -1.080078125
426, 1148926256, 0.7778146266937256, -0.17672239243984222, -0.2271602898836136, -0.558724045753479, 4.371016502380371, -0.031889937818050385, 8.218218803405762, 4.301950931549072, -8.548266410827637, -11.359762191772461, -1.294921875, 1.39013671875, -1.0517578125
427, 1148934589, 0.7771871089935303, -0.17721854150295258, -0.22850893437862396, -0.558890163898468, 4.392911434173584, -0.7639667987823486, 8.033428192138672, 2.4353127479553223, -19.61638641357422, -8.294225692749023, -1.33740234375, 1.369140625, -1.05712890625
428, 1148942922, 0.776491641998291, -0.17779502272605896, -0.22993417084217072, -0.559089183807373, 6.030821800231934, -0.018189257010817528, 8.18623161315918, 1.895928144454956, -21.12232780456543, -9.103995323181152, -1.32470703125, 1.35595703125, -1.02734375
429, 1148951255, 0.7758010029792786, -0.17828667163848877, -0.23130974173545837, -0.5593239665031433, 5.027362823486328, -0.01586345210671425, 8.352702140808105, 2.319305896759033, -19.899808883666992, -9.596120834350586, -1.36669921875, 1.3369140625, -1.03271484375
430, 1148959588, 0.7750310897827148, -0.17918848991394043, -0.23301081359386444, -0.5593968629837036, 4.555140018463135, -0.3869902789592743, 8.219208717346191, 0.7672619819641113, -27.115833282470703, -7.973356246948242, -1.35009765625, 1.3232421875, -1.0068359375
431, 1148967921, 0.7732798457145691, -0.18199753761291504, -0.23461729288101196, -0.5602416396141052, 4.991916179656982, -0.055553682148456573, 8.5804443359375, -25.178516387939453, -42.082847595214844, -17.402376174926758, -1.38818359375, 1.30615234375, -1.00537109375
432, 1148976254, 0.771330714225769, -0.18537645041942596, -0.2361947000026703, -0.5611571669578552, 7.944722652435303, -7.8942155838012695, 7.827366828918457, -32.185638427734375, -46.56840896606445, -17.769622802734375, -1.376953125, 1.2978515625, -0.9736328125
433, 1148984587, 0.7682698965072632, -0.18576622009277344, -0.23888109624385834, -0.5640825629234314, 2.2113096714019775, 1.3303695917129517, 8.73384952545166, -1.2838422060012817, -33.80903625488281, -60.20039367675781, -1.4169921875, 1.2724609375, -0.97705078125
434, 1148992920, 0.7661126255989075, -0.18909651041030884, -0.2417786717414856, -0.5646747350692749, 6.278985500335693, 1.5825213193893433, 7.480774402618408, -20.73360252380371, -61.783912658691406, -19.432371139526367, -1.40234375, 1.26123046875, -0.94873046875
435, 1149001253, 0.7639918923377991, -0.19125886261463165, -0.24461017549037933, -0.5655997395515442, 7.194153308868408, -1.6297391653060913, 7.969600677490234, -9.959381103515625, -51.09035110473633, -26.357868194580078, -1.44140625, 1.24267578125, -0.9501953125
436, 1149009586, 0.7619423270225525, -0.19254609942436218, -0.2476159632205963, -0.5666189789772034, 3.699444055557251, 1.4050631523132324, 8.153420448303223, 0.4611470103263855, -45.57613754272461, -30.202102661132812, -1.4248046875, 1.22607421875, -0.93017578125
437, 1149017919, 0.76027911901474, -0.194849893450737, -0.25129997730255127, -0.5664437413215637, 4.7502522468566895, 2.5944161415100098, 8.232916831970215, 0.18379563093185425, -62.501041412353516, -13.00439453125, -1.466796875, 1.2060546875, -0.93017578125
438, 1149026252, 0.7590557932853699, -0.1971910446882248, -0.255024790763855, -0.5656087398529053, 7.047121524810791, 1.7297967672348022, 8.197657585144043, 3.5706498622894287, -63.417747497558594, -2.663736343383789, -1.44970703125, 1.19140625, -0.908203125
439, 1149034585, 0.7581230998039246, -0.19903036952018738, -0.258960485458374, -0.5644260048866272, 5.1093974113464355, 1.0387033224105835, 8.171627044677734, 12.454747200012207, -61.688560485839844, 0.897794783115387, -1.4921875, 1.1708984375, -0.90869140625
440, 1149042918, 0.7572148442268372, -0.20156800746917725, -0.26356080174446106, -0.5626122355461121, 5.4267988204956055, 1.171570897102356, 8.262710571289062, 12.647644996643066, -75.6304702758789, 8.337258338928223, -1.474609375, 1.1611328125, -0.8876953125
441, 1149051251, 0.7563737630844116, -0.20425347983837128, -0.26854199171066284, -0.5604151487350464, 5.898200511932373, 0.5030447244644165, 8.131896018981934, 15.630555152893066, -81.60607147216797, 12.326196670532227, -1.5146484375, 1.13623046875, -0.8876953125
442, 1149059584, 0.7553914785385132, -0.20715485513210297, -0.2740475833415985, -0.5580045580863953, 6.209397792816162, 0.27597522735595703, 8.113407135009766, 17.815460205078125, -89.80520629882812, 12.788322448730469, -1.494140625, 1.1279296875, -0.865234375
443, 1149067917, 0.7543329000473022, -0.2100614607334137, -0.2798577845096588, -0.5554604530334473, 5.394123077392578, -0.5220724940299988, 8.079846382141113, 20.38762664794922, -93.71810913085938, 12.737564086914062, -1.533203125, 1.10595703125, -0.86083984375
444, 1149076250, 0.7529119849205017, -0.2134818434715271, -0.2863384187221527, -0.5527747273445129, 5.567915916442871, -0.6766663193702698, 8.038137435913086, 19.674102783203125, -106.3613510131836, 11.483097076416016, -1.5205078125, 1.09033203125, -0.83935546875
445, 1149084583, 0.7512333393096924, -0.2169492095708847, -0.29326286911964417, -0.5500718355178833, 6.202658653259277, -0.7195425033569336, 8.186417579650879, 21.876541137695312, -112.41989135742188, 8.57880687713623, -1.56201171875, 1.07080078125, -0.8291015625
446, 1149092916, 0.7492147088050842, -0.22060345113277435, -0.3006402850151062, -0.5473824143409729, 5.616304397583008, -0.690494179725647, 7.786265850067139, 22.299928665161133, -119.80725860595703, 5.272849082946777, -1.54638671875, 1.0576171875, -0.7998046875
447, 1149101249, 0.7467503547668457, -0.22489319741725922, -0.3087020218372345, -0.5445095300674438, 6.597860813140869, -0.9470837712287903, 7.940846920013428, 20.31319808959961, -134.07693481445312, 4.357474327087402, -1.58447265625, 1.03564453125, -0.79150390625
448, 1149109582, 0.7440235018730164, -0.22900210320949554, -0.31709662079811096, -0.5416985750198364, 6.059426307678223, -1.1222676038742065, 7.931968688964844, 23.58454132080078, -137.0332794189453, -0.040932245552539825, -1.57470703125, 1.025390625, -0.7587890625
449, 1149117915, 0.7407268285751343, -0.23363716900348663, -0.32629114389419556, -0.5387693047523499, 4.960324287414551, -1.1408225297927856, 7.448626518249512, 22.885757446289062, -152.02691650390625, -3.2987723350524902, -1.6103515625, 0.998046875, -0.74365234375
450, 1149126248, 0.7366781234741211, -0.23900504410266876, -0.3365819752216339, -0.5356261134147644, 5.266849040985107, -1.0726672410964966, 8.090479850769043, 22.08524513244629, -172.65841674804688, -6.931550025939941, -1.599609375, 0.9853515625, -0.7138671875
451, 1149134581, 0.732096791267395, -0.24499142169952393, -0.3476916551589966, -0.5320946574211121, 5.124558448791504, -1.3448164463043213, 9.708056449890137, 21.897991180419922, -189.27911376953125, -6.744597434997559, -1.6376953125, 0.9638671875, -0.68994140625
452, 1149142914, 0.7266469597816467, -0.25150686502456665, -0.35997307300567627, -0.5283450484275818, 6.569993495941162, -0.7646686434745789, 8.986384391784668, 23.265981674194336, -209.81736755371094, -12.326566696166992, -1.62646484375, 0.95166015625, -0.65966796875
453, 1149151247, 0.7202211618423462, -0.25881460309028625, -0.3733530640602112, -0.5243133902549744, 8.334097862243652, -0.997302770614624, 7.984571933746338, 21.349306106567383, -232.3797607421875, -16.47382164001465, -1.66748046875, 0.93310546875, -0.63037109375
454, 1149159580, 0.712632417678833, -0.26680341362953186, -0.387783408164978, -0.5201882123947144, 6.525799751281738, -1.1940696239471436, 8.626501083374023, 18.52058219909668, -253.99313354492188, -24.182104110717773, -1.6572265625, 0.9208984375, -0.59619140625
455, 1149167913, 0.703349232673645, -0.27607041597366333, -0.40346720814704895, -0.5160425305366516, 6.229260444641113, -1.4352017641067505, 9.766523361206055, 8.850038528442383, -284.5455627441406, -33.87876510620117, -1.69140625, 0.8984375, -0.5615234375
456, 1149176246, 0.6924536824226379, -0.2863083779811859, -0.4203278720378876, -0.5117232799530029, 7.7019500732421875, -3.0958077907562256, 7.9932637214660645, 2.6553397178649902, -312.4269714355469, -42.7330207824707, -1.68212890625, 0.88818359375, -0.5224609375
