PacketCounter,SampleTimeFine,Quat_W,Quat_X,Quat_Y,Quat_Z,Acc_X,Acc_Y,Acc_Z,Gyr_X,Gyr_Y,Gyr_Z,Mag_X,Mag_Y,Mag_Z
0,1145368065,0.44580099,0.262323856,-0.846765876,0.124234639,0,0,0,0,0,0,-1.065429688,0.333984375,0.191894531
1,1145376398,0.456459314,0.263542026,-0.840374053,0.126336008,7.644584656,-0.677956045,-6.570132732,3.859898806,168.2951965,-42.58679199,-1.055175781,0.33203125,0.153808594
2,1145384731,0.467187017,0.26490739,-0.83367759,0.128611967,8.115576744,-0.61212039,-6.665820122,7.050501347,171.7006378,-44.44948959,-1.072753906,0.326660156,0.140136719
3,1145393064,0.478011101,0.266385764,-0.826650262,0.131118059,8.388140678,-0.613291383,-6.509699345,10.67692566,175.2671204,-45.6127739,-1.061523438,0.322265625,0.095703125
4,1145401397,0.48887676,0.267893851,-0.819326699,0.133920848,8.517121315,-0.676605821,-6.33144474,14.59851742,179.0239716,-45.19143295,-1.075683594,0.320800781,0.083007813
5,1145409730,0.4997513,0.269499123,-0.811674714,0.137120292,8.626514435,-0.517073572,-6.158334255,20.32195854,182.3205566,-44.81858063,-1.063964844,0.315429688,0.036621094
6,1145418063,0.510585368,0.271281868,-0.803701758,0.140610665,8.713870049,-0.225186124,-6.105182171,25.51613235,185.1123047,-45.94198227,-1.075195313,0.311035156,0.013671875
7,1145426396,0.521384418,0.273196697,-0.795452416,0.144139156,8.865749359,0.067868538,-5.619006157,27.55613518,186.2683716,-48.0694809,-1.061035156,0.3046875,-0.029785156
8,1145434729,0.532150626,0.275168329,-0.786961973,0.147606716,8.908517838,0.59228909,-5.423859119,27.87136841,187.5808411,-49.99578476,-1.067871094,0.301757813,-0.048828125
9,1145443062,0.542921782,0.277006507,-0.778298497,0.150842875,9.031785965,0.953473806,-5.307200909,24.74983978,188.0221252,-50.88202286,-1.052246094,0.29296875,-0.094726563
10,1145451395,0.553710163,0.278461695,-0.769571185,0.153698429,9.179013252,1.196235418,-5.556685448,17.85640144,188.3027039,-49.93174362,-1.060058594,0.287109375,-0.108398438
11,1145459728,0.564666808,0.279285282,-0.760784507,0.156066909,9.362169266,1.351617098,-5.512875557,7.402469635,189.740509,-47.50635529,-1.038574219,0.284667969,-0.149414063
12,1145468061,0.575775802,0.279332966,-0.752016902,0.157875538,9.397695541,1.374818683,-5.580482483,-5.135161877,190.9654083,-44.02321625,-1.043457031,0.278808594,-0.168457031
13,1145476394,0.587042511,0.278564632,-0.743272066,0.159148261,9.641853333,1.348548293,-5.29176569,-17.76248741,191.8791656,-40.04586411,-1.020996094,0.278808594,-0.204101563
14,1145484727,0.598330796,0.277142912,-0.734545231,0.160106823,9.98415947,1.389976144,-5.267585754,-26.40137482,192.4313049,-35.91759109,-1.028808594,0.272949219,-0.217285156
15,1145493060,0.609607935,0.275144607,-0.725816846,0.160818219,10.33802319,1.100334287,-5.207928658,-33.56679535,192.4259033,-32.07096863,-0.998046875,0.271484375,-0.252441406
16,1145501393,0.620801806,0.272771031,-0.717041671,0.16140452,10.57479954,0.858259499,-4.939427853,-37.57185364,192.5743713,-29.40318871,-1.005859375,0.270507813,-0.262695313
17,1145509726,0.631829917,0.270348132,-0.708105803,0.162135094,10.69611645,0.694872439,-4.722464085,-35.56525803,192.7530975,-27.88351631,-0.973144531,0.271972656,-0.297851563
18,1145518059,0.642564118,0.268092483,-0.699021459,0.163112774,10.7997694,0.679985404,-4.664321899,-30.30894089,191.9368591,-27.29937172,-0.98046875,0.270507813,-0.307617188
19,1145526392,0.652956307,0.266052455,-0.689824879,0.164331213,10.85655308,0.674010336,-4.461914539,-24.55130959,189.8490753,-26.85436249,-0.945800781,0.270019531,-0.339355469
20,1145534725,0.663042009,0.264144719,-0.680564761,0.165630713,10.90568733,1.074203134,-4.300315857,-21.35447693,187.7071838,-26.95818138,-0.950195313,0.269042969,-0.355957031
21,1145543058,0.672897398,0.262026876,-0.671401739,0.16664207,10.88807869,1.528326511,-3.864854813,-25.32906151,183.9215088,-26.70915031,-0.916992188,0.26953125,-0.375488281
22,1145551391,0.682472229,0.259518117,-0.662529469,0.167139798,10.88287926,1.835812449,-3.447631598,-33.36790466,177.8617096,-26.19455528,-0.924316406,0.270996094,-0.391113281
23,1145559724,0.691728473,0.256653041,-0.653970897,0.167217627,10.72617245,2.10567379,-3.562884808,-40.10224533,171.1809387,-25.00456619,-0.890625,0.268066406,-0.413574219
24,1145568057,0.700449288,0.253474981,-0.645964205,0.166883737,10.32604885,1.986702919,-3.564866781,-46.1811409,160.5352783,-22.96063805,-0.89453125,0.270507813,-0.422851563
25,1145576390,0.708633304,0.249923781,-0.63860929,0.165994182,10.0582962,1.945894957,-2.923200607,-54.3167572,148.2731323,-21.4584198,-0.857910156,0.2734375,-0.4375
26,1145584723,0.716207683,0.246055335,-0.63197583,0.16464752,9.725764275,2.281291246,-2.772655725,-60.99322128,135.1763916,-19.29038048,-0.870117188,0.276367188,-0.4375
27,1145593056,0.723038852,0.241997555,-0.62615782,0.163024798,9.425922394,2.398326397,-2.483266115,-64.57532501,120.0699615,-15.88751888,-0.836425781,0.281738281,-0.446777344
28,1145601389,0.729015708,0.237867042,-0.621211648,0.161400974,9.191184044,2.207763433,-2.282692909,-64.43148041,104.3118896,-10.49021912,-0.848144531,0.28125,-0.450195313
29,1145609722,0.734118164,0.23378478,-0.617131472,0.159883797,8.801603317,1.746317148,-1.98775053,-62.09027863,88.31505585,-5.018801689,-0.818847656,0.28515625,-0.451171875
30,1145618055,0.738254428,0.230054721,-0.613894284,0.158707052,8.411314964,1.254773498,-2.001805305,-54.40153885,72.01332855,0.222192243,-0.832519531,0.2890625,-0.453125
31,1145626388,0.741439223,0.226898178,-0.61139518,0.158050567,8.039599419,0.649445593,-1.768414855,-42.78372955,56.81238556,5.116965771,-0.804199219,0.299316406,-0.458984375
32,1145634721,0.743629754,0.224473611,-0.609672785,0.157874644,7.724411964,0.125343531,-1.740681767,-29.87062073,40.51137543,8.404549599,-0.822265625,0.298339844,-0.462402344
33,1145643054,0.744819939,0.223165989,-0.608599722,0.15825744,7.521459579,-0.016203269,-2.108884335,-12.08150101,24.73428917,8.969688416,-0.797363281,0.303710938,-0.463378906
34,1145651387,0.745166481,0.222955689,-0.608051062,0.159030333,7.696824551,0.204184815,-2.036757231,3.867122173,11.16090488,7.187496185,-0.818359375,0.303222656,-0.465820313
35,1145659720,0.744894683,0.223749474,-0.607813597,0.160092428,8.081224442,0.538233876,-2.266354084,17.78902435,1.46330297,4.094038963,-0.795898438,0.305664063,-0.463867188
36,1145668053,0.744252443,0.225151211,-0.60776943,0.161277875,8.319272041,0.817011952,-2.380106688,25.7629528,-4.544377804,1.653873682,-0.817382813,0.299804688,-0.466796875
37,1145676386,0.74339354,0.2267676,-0.607929826,0.162366554,8.358386993,1.112124324,-2.122246981,27.36461639,-9.231479645,0.011872207,-0.794921875,0.297363281,-0.465820313
38,1145684719,0.742369711,0.228438064,-0.608278096,0.163401634,8.447320938,1.613443255,-2.050508738,27.56747818,-12.80817604,-0.063625805,-0.822753906,0.300292969,-0.471191406
39,1145693052,0.741265833,0.229835719,-0.608874321,0.164230525,8.521262169,1.861754894,-2.080892563,22.7462368,-16.03098488,1.101143956,-0.80078125,0.299804688,-0.470703125
40,1145701385,0.740046978,0.230796903,-0.609838009,0.164803237,8.465407372,1.94444561,-1.786208987,15.69153309,-20.57818031,3.537647963,-0.826171875,0.298339844,-0.472167969
41,1145709718,0.738646328,0.231292456,-0.611264408,0.165106535,8.423126221,1.607525945,-1.73304832,8.211968422,-26.57691574,6.609540939,-0.810058594,0.297851563,-0.471679688
42,1145718051,0.736957788,0.231601611,-0.613137007,0.165274873,8.457446098,0.923416913,-2.092745543,5.095995903,-33.56851959,8.8504076,-0.8359375,0.296386719,-0.471679688
43,1145726384,0.734872043,0.232193157,-0.615317822,0.165627018,8.504699707,0.378520668,-2.421086788,10.06204224,-40.04525375,10.24946213,-0.817382813,0.298339844,-0.47265625
44,1145734717,0.732270539,0.232998848,-0.617995739,0.166046858,8.323922157,-0.741128385,-3.632323027,13.32439232,-49.75813293,11.85057163,-0.849609375,0.30078125,-0.469726563
45,1145743050,0.728955805,0.232882619,-0.622081816,0.165535972,8.727149963,-2.139922142,-2.432115555,-4.812295914,-70.80142975,16.48274612,-0.83203125,0.299316406,-0.467773438
46,1145751383,0.725109935,0.231110841,-0.627803087,0.163295597,12.28561211,-1.329140902,1.25289309,-38.21197891,-93.58215332,19.7247715,-0.86328125,0.303222656,-0.459472656
47,1145759716,0.719779432,0.232802793,-0.633155644,0.163807735,20.12510681,3.771538258,0.055902332,25.6233654,-101.6527634,19.44425011,-0.853515625,0.312988281,-0.455078125
48,1145768049,0.714929819,0.235931888,-0.636892974,0.166065022,24.93986893,2.95634675,5.077725887,57.15526962,-79.22899628,17.93551064,-0.887695313,0.309082031,-0.447753906
49,1145776382,0.710425556,0.242331535,-0.638304353,0.170697659,19.84113312,-0.446118981,1.703075767,114.2911911,-52.99331284,4.316763401,-0.870117188,0.304199219,-0.455078125
50,1145784715,0.705727577,0.25050506,-0.638629794,0.17705071,12.24866009,-0.921857476,-0.756214797,149.9329834,-42.61997604,2.381419182,-0.897949219,0.289550781,-0.454589844
51,1145793048,0.7007429,0.257937968,-0.639348805,0.183464929,5.490548611,0.666882873,-1.019821167,143.3005066,-46.84976959,11.52967453,-0.879882813,0.282714844,-0.466796875
52,1145801381,0.695472121,0.264919162,-0.640626192,0.189032748,1.685137272,1.962219357,-1.058657765,131.1233215,-56.70469666,10.05127239,-0.911132813,0.267089844,-0.465332031
53,1145809714,0.689702272,0.271580637,-0.642827928,0.193199098,2.36977911,4.153075218,-1.59530282,115.1212845,-74.11009979,4.11055088,-0.89453125,0.259765625,-0.473144531
54,1145818047,0.68349719,0.276587456,-0.646492958,0.195899799,6.725832462,5.649429798,-2.292004347,84.22135162,-93.01844025,11.47686005,-0.925292969,0.25,-0.467773438
55,1145826380,0.677515745,0.279944062,-0.650724947,0.197888419,9.705026627,4.440011024,-2.279237986,59.98843765,-94.51091766,21.0065136,-0.914550781,0.249511719,-0.467773438
56,1145834713,0.672145247,0.282279074,-0.65479058,0.199468732,10.84512424,2.508341312,-2.131984234,44.92987442,-86.39910889,24.0443573,-0.945800781,0.24609375,-0.453125
57,1145843046,0.667268395,0.28436327,-0.658341289,0.201186731,11.11317635,0.870378971,-2.186988115,43.33472061,-75.84042358,24.24101639,-0.936523438,0.243652344,-0.451171875
58,1145851379,0.662550747,0.286780775,-0.661301911,0.203621864,11.07098293,-0.191768363,-1.918700099,53.90764618,-67.23074341,25.03805161,-0.966796875,0.239257813,-0.442382813
59,1145859712,0.657881021,0.288980335,-0.664157331,0.206341386,10.76420689,-0.396537691,-1.122769117,54.60220337,-63.96494675,29.0807972,-0.955078125,0.240722656,-0.448242188
60,1145868045,0.653457105,0.289927125,-0.667471945,0.208364993,10.07162094,0.182896793,-0.608144641,34.64454269,-65.22467041,35.33369827,-0.984375,0.239746094,-0.439941406
61,1145876378,0.649291575,0.289869606,-0.67119813,0.209494114,9.304717064,-0.030654345,-2.145539999,15.1886158,-67.09653473,37.42571259,-0.971679688,0.240722656,-0.444824219
62,1145884711,0.645262897,0.289357036,-0.675182581,0.209846422,9.437156677,0.239343017,-2.661118746,2.67758584,-70.06804657,35.31427002,-0.999511719,0.246582031,-0.426269531
63,1145893044,0.641428888,0.288871169,-0.679101586,0.20962438,10.19512749,1.789336205,-3.191630125,-3.014682531,-69.89391327,29.15251541,-0.984375,0.247558594,-0.422363281
64,1145901377,0.637884915,0.288362741,-0.682827473,0.209034115,10.67473793,3.481745005,-3.305244446,-7.237540245,-67.02929688,24.50639153,-1.017578125,0.252929688,-0.402832031
65,1145909710,0.634798229,0.287279427,-0.686508,0.207863644,10.23715401,3.548843622,-2.446848154,-19.42256165,-62.82002258,23.32702065,-1.003417969,0.2578125,-0.399414063
66,1145918043,0.631919861,0.285769075,-0.69023788,0.206358641,9.30560112,2.671563387,-2.304661512,-27.26063347,-61.55231476,24.03283119,-1.028320313,0.259765625,-0.381835938
67,1145926376,0.629275858,0.283813,-0.693968892,0.204617321,8.571012497,1.235666275,-2.029857635,-34.30940628,-58.82585144,25.57192612,-1.020507813,0.265136719,-0.380371094
68,1145934709,0.626524985,0.281926841,-0.697664142,0.203095213,8.203497887,0.416257054,-2.514097214,-31.08685875,-59.05005264,26.94031906,-1.048339844,0.272460938,-0.360839844
69,1145943042,0.623344004,0.28028354,-0.701473117,0.20203428,8.716619492,-0.3284325,-2.927249908,-23.22425652,-62.86800385,30.25628281,-1.037109375,0.273925781,-0.355957031
70,1145951375,0.61994189,0.279074967,-0.705151141,0.201370463,10.09850693,-0.241154671,-2.626734495,-14.44679928,-63.73572159,29.54616165,-1.059082031,0.281738281,-0.331542969
71,1145959708,0.616319954,0.278477311,-0.708592832,0.201235071,11.65855694,0.326628417,-3.127616405,-2.621038914,-63.32823181,27.85763359,-1.047363281,0.284667969,-0.326171875
72,1145968041,0.612913251,0.277878344,-0.711802423,0.201140299,12.34006786,-0.338729739,-3.132701874,-2.413766146,-59.29169083,26.70098114,-1.073730469,0.286132813,-0.307128906
73,1145976374,0.610081494,0.277312517,-0.714537561,0.200831443,11.70784855,-0.772708476,-2.979978561,-5.117506981,-50.3797493,21.19441414,-1.060058594,0.291015625,-0.304199219
74,1145984707,0.607642055,0.276856959,-0.716898978,0.200439438,10.23436737,-0.575979054,-3.430634022,-5.471289158,-44.20549774,16.87862396,-1.0859375,0.292480469,-0.28515625
75,1145993040,0.605404317,0.27626422,-0.719207346,0.199758828,9.279314995,-0.837351799,-3.321891785,-10.0864172,-42.29478455,15.0794754,-1.07421875,0.293457031,-0.282714844
76,1146001373,0.603282034,0.275433153,-0.721552253,0.198868215,9.102390289,-1.100907326,-3.189560652,-14.68387508,-41.80109787,15.49337578,-1.095703125,0.294921875,-0.261230469
77,1146009706,0.601169407,0.27471903,-0.723803937,0.198069617,9.309199333,-1.601783991,-3.043533325,-12.58624268,-40.69417953,14.72696877,-1.079101563,0.296875,-0.255859375
78,1146018039,0.599153101,0.274376601,-0.725813687,0.197298273,9.642993927,-2.007113218,-3.448950291,-8.942967415,-38.85282898,10.06388474,-1.102050781,0.298339844,-0.230957031
79,1146026372,0.597282171,0.274334759,-0.727518082,0.196750417,9.983912468,-1.645290017,-2.941111326,-3.963858128,-34.64315796,7.363599777,-1.08984375,0.296386719,-0.229980469
80,1146034705,0.595547497,0.274464458,-0.728986442,0.196392924,10.08105659,-0.94391489,-2.574695587,-0.517945945,-31.30267525,5.946465492,-1.108398438,0.297363281,-0.205566406
81,1146043038,0.593654096,0.27501291,-0.730300546,0.19647643,10.26219368,-0.384964824,-3.041643143,8.339503288,-30.87591171,5.19709444,-1.098144531,0.296875,-0.209960938
82,1146051371,0.591755688,0.275764853,-0.731471658,0.196792558,10.45674801,-0.309164643,-2.656248331,12.75122356,-29.64983368,4.535656929,-1.118652344,0.296386719,-0.189941406
83,1146059704,0.589864075,0.276842117,-0.732399583,0.197506428,10.44252014,-0.069564462,-2.354987621,20.02009201,-26.74927711,3.54174757,-1.110351563,0.293945313,-0.196777344
84,1146068037,0.588026762,0.278254062,-0.733063102,0.198536426,10.05072689,-0.031322617,-2.623796701,26.44159126,-23.98796463,1.598470926,-1.123535156,0.290527344,-0.175292969
85,1146076370,0.586335123,0.279736131,-0.733551145,0.199650526,9.655384064,-0.150333583,-2.177500486,27.76607704,-20.7468586,0.478717655,-1.108398438,0.288085938,-0.180175781
86,1146084703,0.584697127,0.281127274,-0.734027922,0.200744703,9.036872864,-0.136990398,-2.343193293,26.66847992,-20.16567039,1.069151998,-1.12890625,0.290039063,-0.157714844
87,1146093036,0.583064914,0.282397926,-0.73458159,0.201681882,8.770889282,0.339335531,-2.14952898,23.86356163,-20.77636528,1.276934862,-1.11328125,0.28515625,-0.164550781
88,1146101369,0.581382871,0.283337384,-0.735418022,0.202171206,8.936432838,0.776565194,-2.087863922,16.10991859,-24.59301376,2.295741558,-1.127929688,0.284179688,-0.146484375
89,1146109702,0.579666674,0.283752084,-0.736655951,0.202010274,9.447354317,0.939718127,-1.828399301,4.344471455,-28.99787331,4.03128624,-1.115722656,0.282226563,-0.145996094
90,1146118035,0.577921093,0.283807725,-0.738176167,0.201383144,9.96523571,0.962302744,-1.832473397,-3.898592234,-32.59075546,5.16604948,-1.130371094,0.279785156,-0.123046875
91,1146126368,0.576050103,0.283772379,-0.739850402,0.200648576,10.45012951,0.773288906,-1.566442728,-5.661827564,-35.03631592,6.158424377,-1.115722656,0.278808594,-0.124023438
92,1146134701,0.574168384,0.283758789,-0.741504729,0.199953139,10.62338352,0.551758111,-1.570222259,-4.983203888,-35.11371994,6.225559235,-1.132324219,0.281738281,-0.103027344
93,1146143034,0.572180808,0.283937842,-0.74308598,0.199525729,10.46951199,0.510276079,-1.377009034,-0.123998642,-34.88624191,6.361084461,-1.119140625,0.278320313,-0.103515625
94,1146151367,0.570036888,0.284302056,-0.74463737,0.199360117,10.09106445,0.478901982,-1.577010632,4.709964275,-35.94764709,6.863559723,-1.135253906,0.276855469,-0.078613281
95,1146159700,0.567651212,0.284891605,-0.746224403,0.199391186,9.775224686,0.591908574,-1.791670799,9.327707291,-38.34996796,6.877701283,-1.118652344,0.276367188,-0.081542969
96,1146168033,0.565125704,0.285428703,-0.747963846,0.199279785,9.581259727,0.776912808,-1.473285437,7.596156597,-41.5928421,7.307047367,-1.131835938,0.274902344,-0.062011719
97,1146176366,0.562609076,0.285456568,-0.750000954,0.198703572,9.720944405,0.675721765,-1.064495921,-2.00162816,-44.04537201,10.05535984,-1.122070313,0.274902344,-0.059570313
98,1146184699,0.560101986,0.2845411,-0.752482712,0.197714746,10.21688366,-0.939473629,-1.268487215,-14.79827595,-46.62783432,18.33303642,-1.132324219,0.271484375,-0.031738281
99,1146193032,0.557458997,0.283479005,-0.755039692,0.196959794,10.05206013,-2.12574625,-1.720173478,-13.18749523,-47.11227036,22.29759407,-1.117675781,0.271972656,-0.036621094
100,1146201365,0.554831326,0.283232003,-0.757280827,0.19612886,9.675388336,0.468519568,-1.649054408,-6.925617218,-47.22109222,11.99874496,-1.125976563,0.27734375,-0.012695313
101,1146209698,0.552317917,0.28274712,-0.759822428,0.194081485,9.786610603,2.797829151,-1.840312719,-22.67473221,-52.24389267,6.027802467,-1.111816406,0.273925781,-0.010253906
102,1146218031,0.549991429,0.281275928,-0.762884498,0.190786079,9.504850388,2.769975662,-1.812717676,-45.31020355,-56.64350891,8.406208992,-1.125976563,0.272460938,0.016113281
103,1146226364,0.547507644,0.279257506,-0.766339421,0.18701224,9.333173752,2.056621552,-1.873925686,-54.90014648,-61.50934982,12.4446888,-1.107421875,0.272460938,0.016601563
104,1146234697,0.544776857,0.277294904,-0.769880176,0.183328092,9.525845528,1.185258389,-2.10994339,-52.79793167,-64.72542572,13.51506519,-1.119628906,0.272949219,0.049316406
105,1146243030,0.541798592,0.275972128,-0.773193836,0.180178016,9.696659088,0.992704809,-1.837723136,-40.83799362,-65.06222534,10.49706364,-1.107421875,0.272949219,0.052246094
106,1146251363,0.53853184,0.27526024,-0.776312411,0.177633002,9.766942978,0.717932701,-2.199179411,-28.27243042,-66.05224609,8.485458374,-1.114257813,0.271484375,0.084960938
107,1146259696,0.534991145,0.275057018,-0.779255629,0.175748497,9.706535339,0.475350291,-2.220947981,-15.98693752,-66.27319336,7.957237244,-1.103515625,0.269042969,0.084472656
108,1146268029,0.531152368,0.275199324,-0.782149673,0.174308702,9.423644066,0.118693814,-2.978538275,-7.43474102,-68.40607452,8.056056023,-1.109863281,0.271972656,0.107421875
109,1146276362,0.527026951,0.275690049,-0.785008609,0.173198953,9.533194542,0.416038454,-2.797867298,-0.166646957,-70.68016052,7.282300949,-1.099609375,0.267578125,0.110351563
110,1146284695,0.522664964,0.276337773,-0.787907898,0.172217861,9.918560982,0.797195673,-3.581881762,3.156265259,-73.55059814,7.225822926,-1.106445313,0.269042969,0.138671875
111,1146293028,0.518268168,0.276827902,-0.790874302,0.171117201,10.22173977,0.771002293,-3.375915766,0.706098258,-74.36091614,8.422166824,-1.094238281,0.263671875,0.137207031
112,1146301361,0.514014661,0.277201056,-0.793779969,0.16988413,9.982330322,1.000655293,-3.548254013,-1.974456787,-72.72783661,8.172682762,-1.103027344,0.263671875,0.165039063
113,1146309694,0.509683669,0.27745226,-0.79679364,0.168409124,9.54291153,0.664493084,-4.117720604,-5.428964138,-74.85184479,8.39960289,-1.085449219,0.265136719,0.16015625
114,1146318027,0.505366921,0.277669907,-0.799811542,0.166745543,9.224896431,0.736456633,-3.583423376,-7.800291061,-75.49087524,7.415525436,-1.091796875,0.263183594,0.190429688
115,1146326360,0.500941575,0.277988374,-0.802853346,0.164940625,9.090148926,1.220846176,-3.686755896,-8.285711288,-77.4993515,5.680972576,-1.079589844,0.260253906,0.190917969
116,1146334693,0.496278733,0.27826193,-0.806046307,0.162990645,9.312155724,0.883163989,-3.419980049,-9.640334129,-81.73831177,6.278484344,-1.085449219,0.2578125,0.219238281
117,1146343026,0.491543323,0.278572649,-0.809232175,0.161011532,9.307152748,0.708159566,-3.056090832,-9.403554916,-82.57247162,5.822343349,-1.072265625,0.256347656,0.217773438
118,1146351359,0.486626357,0.27912268,-0.812366009,0.159203768,9.213887215,0.641438127,-3.274805546,-5.079948902,-84.23270416,4.501307011,-1.076171875,0.253417969,0.249023438
119,1146359692,0.481397778,0.279804796,-0.815564752,0.157538682,9.397501945,0.386821657,-2.890553713,-1.534226298,-87.77996826,4.934244633,-1.064941406,0.254394531,0.24609375
120,1146368025,0.475838959,0.280677825,-0.818789721,0.156139761,9.500432014,0.70608139,-2.993667841,3.91443491,-91.15605164,5.347664356,-1.06640625,0.251953125,0.276855469
121,1146376358,0.469965041,0.281578422,-0.822143793,0.154677123,9.671991348,0.745541334,-2.679373741,4.333054066,-95.75780487,5.820434093,-1.051757813,0.252441406,0.274902344
122,1146384691,0.463882208,0.282326967,-0.825637877,0.15305528,9.977327347,0.679476976,-2.561747074,2.044968605,-99.41252136,7.472569466,-1.059082031,0.25,0.303222656
123,1146393024,0.457565159,0.282906234,-0.829275072,0.151327476,10.27810764,0.4773871,-2.655362844,0.387995243,-102.9597092,9.795397758,-1.043457031,0.249511719,0.301269531
124,1146401357,0.45106405,0.283429414,-0.832959294,0.149621993,10.61593628,0.355372339,-2.428982496,0.890782237,-105.2320709,11.1133709,-1.044433594,0.253417969,0.331542969
125,1146409690,0.444414496,0.283877105,-0.836684287,0.147877589,10.95988274,0.376126289,-2.153010845,0.493066281,-107.1195526,12.22996235,-1.029785156,0.249511719,0.333496094
126,1146418023,0.437594146,0.283943385,-0.84063828,0.145649225,11.65499496,0.043344878,-1.126699805,-7.227983952,-111.660553,14.87306023,-1.030761719,0.251464844,0.364746094
127,1146426356,0.430188745,0.283823907,-0.844826162,0.143698677,13.22874165,-0.382347554,-2.063551664,-3.294749498,-118.3383026,20.80820465,-1.017578125,0.249023438,0.365234375
128,1146434689,0.421996027,0.283811659,-0.849139214,0.142590523,14.73416042,-1.251975417,-2.90210104,9.928106308,-125.1862106,26.55797958,-1.015625,0.252441406,0.3984375
129,1146443022,0.413832158,0.284249932,-0.853154302,0.141674086,15.77192783,1.09947741,-0.49358511,15.27635002,-123.2551346,21.22103691,-1.009765625,0.254882813,0.39453125
130,1146451355,0.405533284,0.284546942,-0.857235134,0.140437707,16.0396862,3.625089169,0.191504449,11.09720707,-126.1893463,21.54791451,-1.005371094,0.259277344,0.421875
131,1146459688,0.396946043,0.283738464,-0.861870646,0.13821806,16.00164223,2.814014912,0.42769748,-6.581356049,-134.4449463,31.85164833,-0.989257813,0.266113281,0.417480469
132,1146468021,0.388451666,0.281864047,-0.866846025,0.135037541,15.79123116,2.746939659,1.682653308,-24.81829262,-136.8716278,40.36292648,-0.991699219,0.270019531,0.454101563
133,1146476354,0.380253702,0.279112816,-0.872011542,0.130759716,16.02942085,4.182756901,2.783917427,-44.05029678,-137.0968323,45.18207169,-0.979003906,0.270996094,0.453613281
134,1146484687,0.371869892,0.275589883,-0.877448261,0.125882775,16.20277977,4.611251831,1.734111071,-55.07959366,-141.5389709,52.63702774,-0.973144531,0.281738281,0.483886719
135,1146493020,0.362935305,0.271249324,-0.883303702,0.120313637,14.69375992,3.062101364,-1.670618534,-66.20231628,-151.7286682,61.55662918,-0.959472656,0.284667969,0.490722656
136,1146501353,0.352818906,0.266028315,-0.889876664,0.113430008,12.13031673,1.187482953,-5.712902069,-83.3928299,-172.9192963,70.2695694,-0.950195313,0.288085938,0.529296875
137,1146509686,0.34167394,0.259987384,-0.897160411,0.103766665,10.82562542,1.398051381,-4.719190121,-118.671051,-198.1132813,71.08644104,-0.931152344,0.294433594,0.540039063
138,1146518019,0.330519855,0.252539247,-0.904914498,0.09005034,13.32954025,2.299151421,-1.816473484,-175.9956665,-212.6590424,71.0370636,-0.918945313,0.293945313,0.591796875
139,1146526352,0.319480628,0.243999988,-0.912404776,0.076894172,16.84288979,1.774701118,-4.084326744,-173.9891815,-207.0305481,86.15336609,-0.901855469,0.294433594,0.608886719
140,1146534685,0.309393704,0.236009195,-0.918744624,0.066952445,16.89986992,-2.755613804,-6.537219524,-133.2889099,-179.5199432,88.47463226,-0.885253906,0.294921875,0.65625
141,1146543018,0.30035764,0.231101245,-0.923461795,0.059955552,14.45805645,-6.957232952,-6.459555626,-84.80929565,-152.9749298,55.85770798,-0.872558594,0.301269531,0.66015625
142,1146551351,0.292476147,0.229556113,-0.926583707,0.05659556,12.61518288,-7.277010918,-6.552268028,-27.15496254,-122.5769806,22.11337852,-0.86328125,0.302734375,0.689941406
143,1146559684,0.285674423,0.230142117,-0.928540289,0.056891084,10.98165607,-4.854876041,-7.042878151,25.53318977,-94.66214752,5.15819931,-0.859863281,0.310058594,0.678222656
144,1146568017,0.279731035,0.231279656,-0.929913282,0.059335314,9.763061523,-1.067024589,-7.360050201,52.83642197,-74.62674713,4.019351006,-0.859863281,0.315917969,0.693847656
145,1146576350,0.27503252,0.230636254,-0.931386709,0.060677312,8.952766418,0.883067846,-5.427319527,27.85620689,-61.59635925,21.85578918,-0.856933594,0.326171875,0.671875
146,1146584683,0.271363735,0.228830874,-0.932838976,0.06171333,7.735497475,1.718454957,-5.771780968,16.28710938,-47.8774147,34.65933609,-0.855957031,0.333496094,0.687988281
147,1146593016,0.268684417,0.226586834,-0.934190154,0.061276,7.042656898,2.198461056,-4.96571064,-7.278046608,-39.54650116,33.62807465,-0.854003906,0.34375,0.670898438
148,1146601349,0.267285883,0.22442475,-0.935284734,0.058593579,7.312199116,1.266066313,-4.83315897,-39.59095001,-28.73532677,22.40207481,-0.850585938,0.346191406,0.684082031
149,1146609682,0.267600238,0.222949609,-0.935741723,0.055404615,7.552943707,0.146176487,-5.174519539,-48.34676743,-6.971364498,8.360517502,-0.853027344,0.349121094,0.666015625
150,1146618015,0.269567817,0.222098246,-0.935535014,0.052712463,7.124431133,-1.722690463,-5.160839558,-44.22878265,18.28551483,-1.136531591,-0.856933594,0.348632813,0.679199219
151,1146626348,0.272790432,0.22208932,-0.934641004,0.052027334,6.327871799,-3.543402433,-5.069924355,-18.6105938,41.98650742,-7.545608044,-0.863769531,0.34765625,0.653808594
152,1146634681,0.276835769,0.22333622,-0.93301034,0.054529395,5.27437067,-4.396770477,-6.002604485,25.07092476,64.67114258,-14.56590748,-0.870117188,0.349121094,0.654785156
153,1146643014,0.281483799,0.225617185,-0.930711031,0.06032981,4.443641186,-4.424219608,-6.663257599,69.97380066,83.7755127,-17.79048157,-0.880371094,0.356445313,0.616210938
154,1146651347,0.286735743,0.228180468,-0.927959859,0.067866907,4.03152132,-3.923866987,-7.026073933,91.79826355,98.93870544,-16.57775116,-0.891113281,0.361816406,0.611816406
155,1146659680,0.29269293,0.230598032,-0.924858332,0.076099537,3.931230068,-2.680967569,-7.315950394,98.18948364,111.1056061,-13.74199867,-0.900878906,0.372070313,0.5625
156,1146668013,0.299463868,0.233124211,-0.921286404,0.084880114,3.971525908,-0.767712414,-7.088825703,103.5332336,125.5058365,-15.25094318,-0.912597656,0.376953125,0.549804688
157,1146676346,0.307353288,0.235667944,-0.917192161,0.093551442,3.964537859,0.677330732,-6.721889496,99.20611572,140.9317169,-18.91036224,-0.921386719,0.38671875,0.496582031
158,1146684679,0.316314012,0.238065585,-0.912695408,0.101273134,3.81693387,1.585578799,-6.300906181,83.69532013,153.7817993,-23.75670624,-0.936035156,0.391113281,0.480957031
159,1146693012,0.326346815,0.240232676,-0.907862961,0.107563414,3.454153061,2.112094641,-6.012171745,61.65018845,163.8131561,-29.67962456,-0.938964844,0.392578125,0.422851563
160,1146701345,0.337194264,0.242073849,-0.902847588,0.11209631,3.0615623,2.166279793,-6.072754383,35.85934067,170.0014496,-35.31093597,-0.95703125,0.391113281,0.410644531
161,1146709678,0.348800331,0.243384004,-0.897747695,0.114675276,2.896691799,1.911881447,-5.952137947,6.723680496,173.6151886,-39.21113205,-0.9609375,0.391601563,0.363769531
162,1146718011,0.361120284,0.244021744,-0.892579377,0.115526266,3.016448021,1.885774255,-5.940237999,-20.09658241,178.5437317,-40.56959915,-0.976074219,0.387695313,0.350097656
163,1146726344,0.374236345,0.243907377,-0.887281477,0.114834659,3.258711815,1.828278542,-5.935169697,-45.23667908,184.4827271,-40.6789093,-0.974609375,0.383789063,0.30859375
164,1146734677,0.387954712,0.243137866,-0.881804228,0.113117307,3.599686861,1.443330526,-6.154616356,-62.85801315,190.8463287,-39.53628922,-0.989257813,0.381835938,0.298339844
165,1146743010,0.402112335,0.241953999,-0.87602663,0.111086369,4.008219242,0.617301106,-6.492519855,-69.8631134,196.8883667,-37.85009384,-0.986328125,0.373535156,0.255859375
166,1146751343,0.416549891,0.24058789,-0.869867861,0.10923598,4.386901855,-0.50615114,-6.360494137,-69.05561066,203.7320251,-36.37447739,-0.998535156,0.37109375,0.244140625
167,1146759676,0.431201518,0.239455774,-0.863141596,0.10821975,4.643721581,-1.355441689,-6.345616341,-57.57231903,211.4841766,-36.57618713,-0.991210938,0.365722656,0.201660156
168,1146768009,0.445827901,0.23886995,-0.855808616,0.108486429,4.944122314,-1.616696596,-6.312907696,-38.13853073,218.6621246,-37.43119431,-1.002929688,0.361816406,0.189453125
169,1146776342,0.460390955,0.238907531,-0.84782207,0.110272206,5.379203796,-1.710670352,-6.604430676,-15.2362566,225.5304108,-37.49613571,-0.9921875,0.359375,0.141113281
170,1146784675,0.474759102,0.239739805,-0.839137673,0.113910027,5.944252491,-1.757496119,-7.076230049,13.06931877,233.0116882,-37.04561234,-1.008300781,0.358886719,0.119140625
171,1146793008,0.489040136,0.241258547,-0.829716325,0.11918021,6.51514101,-1.74130857,-7.168501377,37.84711838,240.6887054,-36.59722137,-0.990234375,0.35546875,0.064453125
172,1146801341,0.503271043,0.243507266,-0.819511056,0.125790074,6.873122215,-1.661704183,-7.165665627,59.47826385,249.0742188,-38.43996429,-1.001464844,0.353515625,0.035644531
173,1146809674,0.517442524,0.246716097,-0.808423936,0.133543968,7.116147518,-1.175078869,-7.220929623,80.75428009,256.2634277,-44.19387054,-0.981445313,0.349609375,-0.025390625
174,1146818007,0.531423688,0.250811309,-0.796608627,0.141761228,7.417417526,-0.748087823,-7.29551506,94.18434143,259.6916809,-52.87213135,-0.990722656,0.346679688,-0.055175781
175,1146826340,0.545320213,0.255552888,-0.784116328,0.149929658,8.039770126,-0.116251141,-7.050599098,100.0002441,261.8896179,-62.47774124,-0.963867188,0.334472656,-0.110839844
176,1146834673,0.559245288,0.260442913,-0.771115243,0.157461464,8.823993683,0.90257448,-6.859375954,95.18269348,263.8648682,-70.70326996,-0.969726563,0.328125,-0.146484375
177,1146843006,0.573352814,0.264874607,-0.757798374,0.163854599,9.479998589,1.912968993,-6.525994778,79.63077545,264.7704468,-76.11815643,-0.941894531,0.315917969,-0.196777344
178,1146851339,0.587683499,0.268224865,-0.744458139,0.168713778,9.814679146,2.59855032,-6.079563141,54.3392868,264.4991455,-77.53892517,-0.9453125,0.305664063,-0.227539063
179,1146859672,0.602114677,0.270308077,-0.731243908,0.172258049,9.880829811,2.656161547,-5.955436707,29.99924278,262.2538147,-74.940979,-0.907714844,0.296386719,-0.271484375
180,1146868005,0.616336226,0.271119833,-0.718371809,0.174827203,9.978728294,1.96064496,-6.123932838,9.606641769,257.0437317,-68.48183441,-0.913574219,0.289550781,-0.29296875
181,1146876338,0.630331516,0.270765156,-0.70586282,0.176422447,10.42185307,1.317107677,-6.102375507,-9.898409843,250.5814514,-63.2800293,-0.875488281,0.285644531,-0.328125
182,1146884671,0.644075394,0.269506723,-0.693619788,0.17726697,11.51415825,1.22873807,-6.295886993,-24.76189232,245.553421,-59.44758224,-0.878417969,0.28125,-0.348632813
183,1146893004,0.657410264,0.26793319,-0.681433022,0.17796436,12.8570013,1.17888844,-7.427196503,-27.54536057,241.0813141,-56.50091171,-0.833496094,0.278808594,-0.380371094
184,1146901337,0.670706749,0.265807956,-0.669240654,0.177804023,13.9128933,1.172534943,-6.479141712,-40.44881439,239.2575073,-59.05137634,-0.841796875,0.278320313,-0.395507813
185,1146909670,0.684005797,0.26304993,-0.657003641,0.176878199,13.93024445,2.008896351,-6.00472784,-53.19891357,238.1820068,-60.41860962,-0.799316406,0.27734375,-0.419921875
186,1146918003,0.696865141,0.259627461,-0.64502424,0.175827071,12.87808323,2.36101222,-5.800517082,-59.64878845,233.2103577,-53.63224411,-0.803710938,0.278808594,-0.431640625
187,1146926336,0.70912677,0.255320877,-0.633682787,0.174342975,12.00343704,1.11829865,-5.372126102,-71.34247589,222.1597595,-46.17766571,-0.758789063,0.276855469,-0.444824219
188,1146934669,0.72061795,0.250535637,-0.622990906,0.17269285,11.49750996,0.855851054,-5.170338154,-76.33641815,209.8976746,-39.53518677,-0.763671875,0.28125,-0.455078125
189,1146943002,0.73111093,0.245540142,-0.61309886,0.171159193,10.66427135,1.391859055,-5.113693714,-75.85971069,194.1361084,-31.41937256,-0.720214844,0.284667969,-0.4609375
190,1146951335,0.74047327,0.240328923,-0.604275703,0.169678643,10.05941391,2.027417898,-4.255259514,-76.30175018,174.7236938,-22.82837677,-0.729003906,0.291503906,-0.470214844
191,1146959668,0.748665869,0.234695658,-0.596754134,0.168227687,9.156755447,2.534600258,-3.641217947,-79.50763702,152.6876221,-11.96026611,-0.688964844,0.293945313,-0.472167969
192,1146968001,0.755464256,0.228448257,-0.590981781,0.166806385,7.968721867,2.287168503,-3.009058714,-85.14952087,124.8976212,2.227829933,-0.701171875,0.301757813,-0.477050781
193,1146976334,0.760604262,0.221700117,-0.587346554,0.165387571,6.74070549,1.017205119,-2.570097685,-90.01235199,90.26148987,16.87140846,-0.663085938,0.310058594,-0.474609375
194,1146984667,0.763828218,0.215365261,-0.585899115,0.164028227,5.642362118,-0.482706755,-2.586719751,-84.35561371,51.2539711,25.15213966,-0.679199219,0.317382813,-0.470703125
195,1146993000,0.765039384,0.210917011,-0.586213171,0.163039222,5.57032299,-1.128129125,-3.517745972,-59.56155777,13.29044437,23.63061714,-0.646484375,0.327148438,-0.462890625
196,1147001333,0.764407337,0.209117293,-0.587808132,0.162579462,5.988809586,-1.532175899,-4.609941959,-24.96060944,-19.36266518,15.66277313,-0.671875,0.331054688,-0.463867188
197,1147009666,0.762307227,0.209788114,-0.590287626,0.162591398,6.43924284,-1.651457667,-5.220279217,7.071065426,-44.75058365,6.500814915,-0.646484375,0.335449219,-0.454589844
198,1147017999,0.759095073,0.212319896,-0.593392074,0.163032159,6.899238586,-1.157220602,-5.736842632,31.86623764,-63.19492722,0.15587613,-0.67578125,0.335449219,-0.461914063
199,1147026332,0.755050242,0.21615164,-0.59688431,0.164028913,7.474614143,-0.571063459,-6.403891563,51.53541183,-75.35062408,-1.639758468,-0.656738281,0.330078125,-0.460449219
200,1147034665,0.750427604,0.220671177,-0.600647688,0.165480673,8.124684334,-0.33376205,-6.801247597,63.5177803,-83.08729553,-0.462264538,-0.688476563,0.330078125,-0.46484375
201,1147042998,0.745390117,0.225726932,-0.604471445,0.167493239,8.781728745,0.049960326,-6.896571159,74.80013275,-86.62741852,2.021819115,-0.670898438,0.322265625,-0.466308594
202,1147051331,0.740221918,0.230874851,-0.608203232,0.169870734,9.382666588,0.792434156,-6.555439472,79.40076447,-85.87961578,5.016159534,-0.704101563,0.321289063,-0.477539063
203,1147059664,0.73519814,0.235594824,-0.61180824,0.172244802,9.773716927,1.730286121,-5.618694305,74.84435272,-82.31439972,7.805960178,-0.689453125,0.315429688,-0.478027344
204,1147067997,0.73121357,0.238006979,-0.615387738,0.17313619,10.21384144,3.278526783,-0.615629077,35.73945236,-72.7278595,9.700820923,-0.724121094,0.311523438,-0.479492188
205,1147076330,0.73009032,0.233331874,-0.619796813,0.168449327,13.3519783,6.564341068,14.5483675,-94.08726501,-58.11139297,9.475409508,-0.704589844,0.31640625,-0.474121094
206,1147084663,0.727657497,0.229804412,-0.624465644,0.166572362,22.73119354,11.88019466,3.14812541,-54.99969482,-65.6504364,31.78561401,-0.739257813,0.330078125,-0.462402344
207,1147092996,0.724573791,0.22801201,-0.628059328,0.16894944,30.42305756,0.482386023,4.137307644,3.400525093,-50.9216423,57.55460358,-0.715332031,0.328613281,-0.454589844
208,1147101329,0.722226799,0.231574908,-0.628870249,0.171121702,22.52949524,-8.457723618,0.915801048,59.15923309,-30.0053978,-1.182716012,-0.747558594,0.331054688,-0.45703125
209,1147109662,0.717644334,0.242667183,-0.627444744,0.180031046,10.48190308,-2.400154591,-5.570869923,204.5809174,-23.30534172,-1.223407149,-0.727050781,0.321777344,-0.471679688
210,1147117995,0.711755097,0.254423618,-0.626801193,0.189188555,0.744597852,-0.356022865,-2.232700109,215.7120667,-43.19837952,1.316512465,-0.7578125,0.302246094,-0.492675781
211,1147126328,0.705178797,0.265053362,-0.627667964,0.19621788,-0.721141636,5.678076744,2.046697617,184.8020935,-68.31013489,-2.761615992,-0.740722656,0.283203125,-0.506835938
212,1147134661,0.698585808,0.270886242,-0.631416142,0.199777827,3.499810696,10.04645538,0.112860627,100.631218,-96.20675659,15.57691288,-0.775878906,0.269042969,-0.520019531
213,1147142994,0.692059398,0.273452997,-0.637003958,0.201251298,8.271670341,8.77797699,-2.508157969,45.82507324,-111.9928284,30.5461731,-0.758789063,0.265625,-0.51171875
214,1147151327,0.686581075,0.274564058,-0.64232856,0.201579064,11.23927116,2.995331764,-1.604195833,18.73119926,-100.6947479,28.5217495,-0.796875,0.265625,-0.503417969
215,1147159660,0.681802452,0.276326746,-0.646511137,0.202017695,11.03138733,-1.163077474,-2.868513584,26.37435913,-84.99963379,17.59699059,-0.782714844,0.267578125,-0.493652344
216,1147167993,0.676969469,0.279692888,-0.649553299,0.203871489,10.45083809,-2.486107349,-2.283163548,57.3775444,-73.98631287,12.38981533,-0.818847656,0.264160156,-0.483398438
217,1147176326,0.671876788,0.284055024,-0.651947796,0.207020298,10.52242088,-1.283147693,-1.292196989,81.02085876,-67.95401764,13.81864643,-0.803222656,0.2578125,-0.485351563
218,1147184659,0.666686118,0.28764683,-0.654566169,0.210549191,10.96265793,1.594161034,-1.697091341,77.0668335,-67.35629272,25.35702515,-0.838378906,0.25390625,-0.482910156
219,1147192992,0.662022293,0.288692594,-0.658159494,0.212621108,10.43149567,2.1812222,-1.106731415,35.69116974,-69.80052948,37.26002884,-0.82421875,0.248046875,-0.4921875
220,1147201325,0.658115208,0.287159532,-0.662686884,0.212764263,9.36920929,0.553754568,-1.397319555,-10.96457481,-71.71456909,44.52333832,-0.858398438,0.252929688,-0.488769531
221,1147209658,0.654722571,0.284275502,-0.667628169,0.211654082,8.512811661,-1.219661474,-2.229448318,-37.86829376,-71.61950684,45.63893127,-0.842285156,0.256835938,-0.483886719
222,1147217991,0.651364744,0.281648964,-0.672454298,0.210243076,8.909872055,-2.071595192,-2.736516237,-38.09945297,-72.33873749,39.99941635,-0.875,0.266113281,-0.470703125
223,1147226324,0.647653401,0.280570686,-0.67666024,0.209654495,10.30284977,-1.608793974,-3.888038874,-13.47562122,-71.183815,31.67884827,-0.861328125,0.274902344,-0.470214844
224,1147234657,0.643976688,0.280574948,-0.680176318,0.209596857,11.24436092,-0.304457605,-3.499217987,2.972531796,-65.95001984,23.56274986,-0.893554688,0.275878906,-0.460449219
225,1147242990,0.640609026,0.280943274,-0.683189034,0.209624648,10.89101124,1.611620188,-2.689477921,7.242359638,-59.14413834,18.07357979,-0.87890625,0.276855469,-0.460449219
226,1147251323,0.637601733,0.280941963,-0.68610996,0.209254548,9.567545891,2.861368656,-2.322449684,-0.868709385,-55.60080338,16.65464211,-0.911621094,0.281738281,-0.448730469
227,1147259656,0.634585917,0.280460835,-0.689303339,0.208571315,8.826640129,1.927396894,-2.068244934,-8.79196167,-57.70559692,19.50477791,-0.899902344,0.279785156,-0.451171875
228,1147267989,0.631362259,0.280042768,-0.692494512,0.208345681,9.111509323,0.810800612,-2.145124912,-3.085091829,-58.26441574,23.49841499,-0.929199219,0.284179688,-0.437988281
229,1147276322,0.627800167,0.280322641,-0.695393682,0.209076032,9.830339432,0.104701452,-2.897139788,14.2086134,-57.07122803,24.99757004,-0.920898438,0.285644531,-0.432617188
230,1147284655,0.623893082,0.281609237,-0.69779259,0.211040661,10.77432823,0.355773628,-2.747228146,37.48151016,-54.38783646,25.08672905,-0.9453125,0.2890625,-0.41796875
231,1147292988,0.620080531,0.283334136,-0.699761748,0.213434458,11.0396328,1.494989872,-2.256158829,46.23142624,-49.19714737,22.62696075,-0.934082031,0.282226563,-0.420898438
232,1147301321,0.616363108,0.2849783,-0.701691031,0.215668216,10.86836529,2.040471792,-2.325144529,43.75860977,-48.53313446,21.60209846,-0.964355469,0.287597656,-0.407714844
233,1147309654,0.613066554,0.285600156,-0.703945994,0.216889039,10.34277916,1.387788057,-1.964813709,22.69610786,-47.95820618,22.91062737,-0.953125,0.281738281,-0.411621094
234,1147317987,0.610343397,0.285334408,-0.70635283,0.217094183,9.638401985,0.923638821,-2.240724325,2.684159994,-45.24314117,21.82636261,-0.98046875,0.287597656,-0.392578125
235,1147326320,0.607847452,0.284393132,-0.708996534,0.216713339,9.382722855,0.186780751,-2.755881786,-10.27788925,-45.0908699,23.7264843,-0.971191406,0.287109375,-0.39453125
236,1147334653,0.605560899,0.283263594,-0.711561084,0.216188222,9.365156174,-0.914539039,-3.004936457,-13.83942699,-42.60486603,23.41565132,-0.998535156,0.293945313,-0.375976563
237,1147342986,0.603387237,0.28235957,-0.713925421,0.21565266,9.460409164,-1.459266782,-3.325268984,-11.91033459,-40.32518005,20.01506615,-0.985839844,0.294921875,-0.374023438
238,1147351319,0.601268351,0.281792283,-0.716067851,0.215209469,9.894562721,-1.543093562,-3.432651758,-7.763199806,-38.80746841,16.44468689,-1.011230469,0.297363281,-0.357421875
239,1147359652,0.599476278,0.28125155,-0.717982054,0.214537889,10.25013828,-1.005926251,-2.726448774,-10.38507271,-34.43517685,12.44055462,-0.998535156,0.298828125,-0.355957031
240,1147367985,0.597862363,0.280806065,-0.719710708,0.213831559,10.48587132,-0.001495562,-2.68269372,-10.08236217,-31.79323959,9.973130226,-1.025878906,0.302734375,-0.338378906
241,1147376318,0.59630543,0.280165136,-0.721515954,0.212934211,10.69163322,-0.091695398,-2.671686649,-14.03077602,-31.78437805,10.45449924,-1.010253906,0.304199219,-0.334472656
242,1147384651,0.594849586,0.279448897,-0.723271906,0.211988628,10.63653088,-0.077907763,-2.84842968,-15.36504841,-30.57794762,10.33037376,-1.036132813,0.308105469,-0.314941406
243,1147392984,0.593617558,0.27878049,-0.724825978,0.211010993,10.0715332,0.026238922,-2.466647625,-15.57116127,-26.72696686,8.152569771,-1.023925781,0.307128906,-0.314941406
244,1147401317,0.592474818,0.278383315,-0.726161897,0.210152328,9.525751114,0.05608166,-2.727919817,-11.87440872,-24.62246704,5.33597374,-1.049804688,0.308105469,-0.293945313
245,1147409650,0.591302752,0.277996182,-0.727479339,0.209408075,9.309272766,-0.60119313,-2.589453459,-10.49108696,-24.11838341,6.171511173,-1.03515625,0.310058594,-0.291992188
246,1147417983,0.590344846,0.277635366,-0.728579044,0.208765313,9.183664322,-0.235747188,-2.100026608,-9.446148872,-20.13123322,5.294477463,-1.056152344,0.311523438,-0.271972656
247,1147426316,0.589274943,0.277311295,-0.729745567,0.208143473,9.280567169,-0.004487027,-2.444244623,-8.709766388,-21.57785034,5.659505844,-1.047851563,0.309082031,-0.275878906
248,1147434649,0.588196576,0.276589215,-0.731181681,0.207112417,9.815101624,-0.142177671,-1.758651495,-16.77413368,-24.51302147,7.401533604,-1.067871094,0.310058594,-0.254394531
249,1147442982,0.587166727,0.275684565,-0.732732058,0.205756634,10.15687084,0.365239799,-1.525961637,-22.03152084,-25.42110634,6.896294594,-1.056152344,0.30859375,-0.2578125
250,1147451315,0.586070836,0.274662971,-0.734440327,0.204149917,10.34118271,0.410761714,-1.703257442,-25.69589996,-28.22543907,6.846168518,-1.075683594,0.311523438,-0.234375
251,1147459648,0.58501929,0.273490876,-0.736214399,0.202342257,10.21224308,0.170647129,-1.421987414,-29.29624939,-28.40474319,6.856902599,-1.065917969,0.312988281,-0.232910156
252,1147467981,0.583959579,0.272378266,-0.73793292,0.200636879,9.484348297,0.28242439,-1.535260558,-27.59036064,-28.06220055,6.906900883,-1.082519531,0.315917969,-0.207519531
253,1147476314,0.582693696,0.271375299,-0.739762008,0.198933378,9.044163704,-0.075457573,-1.55586195,-26.22968292,-31.10179901,6.77857399,-1.069335938,0.312011719,-0.20703125
254,1147484647,0.581267238,0.270551115,-0.741596222,0.197393656,9.073271751,-0.11991325,-1.364949703,-22.53961182,-32.88851547,6.741893768,-1.08984375,0.319335938,-0.181640625
255,1147492980,0.579600513,0.269894093,-0.743514717,0.195972383,9.279161453,-0.46028778,-1.472642064,-19.33416748,-35.79897308,6.940430641,-1.075195313,0.314941406,-0.184082031
256,1147501313,0.577783167,0.269514292,-0.745363116,0.194836706,9.636062622,-0.505751312,-1.326041579,-13.45374393,-36.69339371,6.538465977,-1.095214844,0.314941406,-0.161132813
257,1147509646,0.575763404,0.269450426,-0.747157454,0.194029868,9.710747719,-0.256766826,-1.519740701,-6.682993889,-37.74695587,6.243337631,-1.082519531,0.311523438,-0.158691406
258,1147517979,0.573669732,0.269387364,-0.749006033,0.193189949,9.680006981,-0.017368728,-1.122059822,-6.880941391,-39.28079224,6.382064819,-1.100585938,0.31640625,-0.137207031
259,1147526312,0.571412027,0.269413084,-0.750933826,0.192358986,9.639533997,0.408355623,-1.463746786,-5.698842525,-41.58536148,6.252943516,-1.090332031,0.311523438,-0.133789063
260,1147534645,0.568970144,0.269404083,-0.753041387,0.191368669,9.803905487,0.342878848,-1.699850559,-7.403091908,-45.61107254,6.527812958,-1.106933594,0.31640625,-0.114257813
261,1147542978,0.566474199,0.269365668,-0.755210876,0.190274268,9.941601753,0.625187397,-1.678999066,-8.681091309,-46.75813675,6.375254631,-1.095703125,0.310058594,-0.112792969
262,1147551311,0.563875496,0.269301981,-0.757490039,0.189019904,9.905177116,0.901925802,-1.803837538,-10.43749142,-49.41225433,6.082127094,-1.110839844,0.312988281,-0.087890625
263,1147559644,0.561146975,0.269044399,-0.759967208,0.187556952,10.08166981,0.733134747,-1.960753798,-14.15328407,-52.37361908,7.541171074,-1.097167969,0.312011719,-0.091796875
264,1147567977,0.558574617,0.267662793,-0.762874365,0.185398206,10.34723186,-0.290216148,-1.103640795,-31.78116035,-53.92808151,15.11917877,-1.112304688,0.315429688,-0.061035156
265,1147576310,0.555698752,0.265801162,-0.765972376,0.183940202,10.28929424,-2.627373219,-1.650894761,-27.49022865,-54.5881691,27.00784683,-1.097167969,0.312011719,-0.05859375
266,1147584643,0.552607477,0.264711678,-0.768798649,0.18303138,9.757657051,-2.711797476,-2.151609182,-14.32573128,-54.91592407,22.63039207,-1.111816406,0.315917969,-0.034179688
267,1147592976,0.549462616,0.264597833,-0.771303475,0.182122514,10.0476656,1.378330231,-1.896246552,-5.915420055,-55.31778717,11.26357269,-1.095214844,0.317871094,-0.034179688
268,1147601309,0.546741188,0.263549119,-0.77423507,0.179373175,9.421843529,3.257631063,-1.894011617,-35.10250092,-58.58296204,7.78121376,-1.110839844,0.316894531,-0.006835938
269,1147609642,0.543879867,0.261637568,-0.777766943,0.175550029,9.197310448,3.83788085,-2.387877703,-54.00743484,-66.18341064,11.39693546,-1.094726563,0.317382813,-0.001464844
270,1147617975,0.540624976,0.259362817,-0.781675637,0.171573788,9.271713257,1.934057713,-2.678122759,-57.84412766,-73.04904175,16.45897865,-1.108886719,0.319335938,0.030273438
271,1147626308,0.537165701,0.257737041,-0.785337627,0.168131769,9.876283646,1.139885187,-2.910750389,-45.96315765,-72.88320923,13.06328297,-1.092285156,0.317871094,0.03515625
272,1147634641,0.533536851,0.256873339,-0.788659751,0.165436223,10.0222168,0.751093388,-3.132831812,-30.88834572,-71.47567749,9.529250145,-1.104492188,0.318359375,0.067871094
273,1147642974,0.529697657,0.256706268,-0.791700482,0.163498014,9.92557621,0.764678895,-3.206653595,-16.17452049,-70.45162964,7.030410767,-1.092285156,0.316894531,0.069335938
274,1147651307,0.525670171,0.256937176,-0.794605613,0.162033707,9.589863777,0.885086,-3.212925434,-7.152704239,-70.88637543,6.078707695,-1.108886719,0.318359375,0.095214844
275,1147659640,0.521447122,0.257460982,-0.797461569,0.160811707,9.438055038,0.961092472,-2.948360443,-1.578996778,-72.31799316,4.90943861,-1.093261719,0.315429688,0.094726563
276,1147667973,0.517007172,0.258237928,-0.80029875,0.159804553,9.585264206,0.944555163,-3.414076328,3.394120216,-74.50722504,4.071773529,-1.1015625,0.314453125,0.12109375
277,1147676306,0.512292147,0.259108514,-0.803211808,0.158963054,9.659438133,0.224981815,-3.74354887,6.70288372,-77.55007172,5.11166811,-1.088378906,0.311523438,0.124023438
278,1147684639,0.50754267,0.260108232,-0.806034029,0.158279359,9.653072357,0.235384002,-3.287786961,9.667466164,-77.1529541,4.528326035,-1.099121094,0.313476563,0.155273438
279,1147692972,0.502638638,0.261281133,-0.808846772,0.157647192,9.531933784,0.4410308,-3.725144863,12.033288,-78.85992432,3.294354677,-1.083984375,0.308105469,0.151367188
280,1147701305,0.497526944,0.2625283,-0.811716855,0.157037199,9.698248863,0.210449919,-3.540587425,13.40217972,-81.77890778,3.253629684,-1.091308594,0.30859375,0.179199219
281,1147709638,0.492408872,0.263830334,-0.814522922,0.156455621,9.689936638,0.44069171,-3.226931334,14.26884174,-81.30125427,2.645005941,-1.081054688,0.305664063,0.17578125
282,1147717971,0.487163335,0.265043586,-0.817395687,0.155843288,9.698817253,0.619092107,-3.271477699,13.62884235,-83.22673798,3.920936346,-1.087402344,0.3046875,0.203125
283,1147726304,0.481781662,0.265946209,-0.820451438,0.154975489,9.759367943,0.52515775,-2.785502434,8.796665192,-86.13425446,6.68647337,-1.073242188,0.303710938,0.201660156
284,1147734637,0.476300269,0.266593426,-0.823640227,0.153888881,9.72684288,0.850169837,-2.574606657,4.700795174,-88.51280975,8.790239334,-1.081054688,0.303222656,0.233398438
285,1147742970,0.470558614,0.266980469,-0.827066541,0.152498424,9.849238396,0.766017675,-2.431932926,0.025524782,-93.47502899,11.19659424,-1.066894531,0.301757813,0.23046875
286,1147751303,0.464617521,0.267054826,-0.830726862,0.15067865,10.15608597,0.637116194,-2.065280199,-6.658043385,-98.28308105,13.22442436,-1.070800781,0.301269531,0.266113281
287,1147759636,0.458333611,0.266763985,-0.834723175,0.148335919,10.83710384,0.393345594,-1.227125883,-14.38161564,-105.4233322,16.03038406,-1.058105469,0.299804688,0.263671875
288,1147767969,0.451461017,0.266500682,-0.838897586,0.146321997,12.4918499,0.019426033,-2.389050961,-8.659247398,-112.2391815,19.61246872,-1.060546875,0.302734375,0.297851563
289,1147776302,0.443987161,0.266452909,-0.843132794,0.144928664,13.98042107,-0.584193826,-2.553564548,1.945387483,-117.6532211,22.44264412,-1.047363281,0.305175781,0.298339844
290,1147784635,0.436488539,0.266759217,-0.8471241,0.143865049,14.74466515,1.255940557,-0.792534351,8.481578827,-116.0099335,19.47337151,-1.048828125,0.30859375,0.331054688
291,1147792968,0.428582698,0.267119646,-0.851180792,0.14301917,14.52874374,2.255277157,-1.191265702,12.73273563,-120.4262238,21.22455788,-1.0390625,0.305664063,0.326660156
292,1147801301,0.420066386,0.266862839,-0.855680823,0.141908914,14.37574673,1.040324688,-1.306112409,7.345572948,-129.9691315,29.6917305,-1.040039063,0.311523438,0.35546875
293,1147809634,0.411469638,0.266129553,-0.860318542,0.140423283,14.47693253,2.044140577,-0.242615879,0.23415637,-132.182724,33.83423233,-1.024414063,0.314941406,0.356445313
294,1147817967,0.402701795,0.264742166,-0.865259707,0.138085082,14.97001648,3.979738712,0.838789582,-13.54541016,-137.7571716,38.1467247,-1.021972656,0.322265625,0.388671875
295,1147826300,0.39377141,0.262443244,-0.870627642,0.134439588,15.55322742,4.780026913,1.728368878,-34.32792664,-145.1590881,43.66344833,-1.01171875,0.323242188,0.390136719
296,1147834633,0.38495791,0.259353518,-0.876240611,0.129401252,15.08012104,4.433414936,1.901373863,-56.19962692,-148.5774078,46.21059036,-1.003417969,0.327636719,0.429199219
297,1147842966,0.376377255,0.255733699,-0.881917775,0.123127095,13.88022804,3.448068857,0.709557891,-74.78759766,-149.7212372,45.93613052,-0.985839844,0.332519531,0.435058594
298,1147851299,0.367753685,0.251806319,-0.887580276,0.116407759,12.64382172,2.128831387,-1.932729602,-81.65825653,-151.0651398,47.31810379,-0.980957031,0.333984375,0.477050781
299,1147859632,0.358818859,0.247712031,-0.89326787,0.109358214,11.26336575,1.084035277,-4.686169624,-85.42195892,-156.0842285,48.34965897,-0.967285156,0.338867188,0.484863281
300,1147867965,0.349173874,0.243645146,-0.899048209,0.102106869,10.14842129,0.829002559,-7.159108639,-85.56032562,-165.7779541,48.32233047,-0.96484375,0.340332031,0.525878906
301,1147876298,0.339497477,0.23940964,-0.904803395,0.093564726,10.01825142,1.118436575,-8.170763016,-102.107933,-170.3907166,44.24557877,-0.950683594,0.34375,0.528808594
302,1147884631,0.330616355,0.23410359,-0.910605013,0.081768215,10.98001957,1.22035563,-8.680135727,-150.3594208,-169.7948151,41.42516327,-0.94140625,0.346679688,0.578125
303,1147892964,0.32188195,0.227786168,-0.916373432,0.06902276,12.9342947,1.132619262,-8.604777336,-167.1916199,-169.9989929,49.56860733,-0.927246094,0.342285156,0.586914063
304,1147901297,0.314330637,0.22102125,-0.921419561,0.057711467,14.68453407,-0.619470119,-7.988024235,-154.2045135,-146.6997375,58.10686493,-0.915039063,0.333496094,0.635742188
305,1147909630,0.308342755,0.21604459,-0.925123751,0.048930082,13.88817692,-4.284654617,-7.453433514,-118.0125809,-115.1144791,41.11377335,-0.899902344,0.332519531,0.637695313
306,1147917963,0.303465247,0.213969022,-0.927521169,0.042772505,12.80352879,-6.386274338,-6.226047993,-74.83758545,-89.30414581,10.64923477,-0.896484375,0.331542969,0.672851563
307,1147926296,0.299389154,0.214771181,-0.928769886,0.040308584,10.7992506,-5.905107498,-6.226167679,-17.32513237,-65.45294189,-14.46039677,-0.889160156,0.329589844,0.660644531
308,1147934629,0.295449018,0.216686592,-0.929544926,0.041254532,8.660365105,-4.42245388,-5.018261909,30.59754753,-51.97119904,-16.14657784,-0.889648438,0.331542969,0.677734375
309,1147942962,0.29191485,0.218868241,-0.929958165,0.045374669,6.830602646,-2.707832813,-6.461485386,71.28973389,-36.38207626,-7.954699039,-0.888671875,0.3359375,0.652832031
310,1147951295,0.288239539,0.22091265,-0.930308878,0.051376995,5.467306137,-1.216186523,-5.75379324,95.23265839,-31.80740166,1.248487473,-0.889648438,0.342285156,0.658691406
311,1147959628,0.285240978,0.221722469,-0.930786848,0.05578009,5.701305389,-1.685852647,-4.213627338,67.75246429,-28.03601456,10.61437035,-0.8828125,0.353027344,0.631835938
312,1147967961,0.283273667,0.222747877,-0.930804074,0.061172526,6.464838982,-1.298305273,-5.191019058,78.45239258,-9.783284187,9.536732674,-0.887207031,0.360351563,0.637207031
313,1147976294,0.282348275,0.224078521,-0.930355906,0.067115985,7.050260067,-0.258108705,-5.634243965,83.90359497,6.392058849,5.481518269,-0.888671875,0.369628906,0.60546875
314,1147984627,0.282485038,0.225501925,-0.929583669,0.07227575,7.331554413,-0.247910634,-5.643559456,71.25267029,19.14646149,-0.734337926,-0.890136719,0.376464844,0.608398438
315,1147992960,0.284124941,0.227100953,-0.928331554,0.076794825,7.21962595,-0.046459198,-5.614824295,59.56707001,37.64137268,-8.436059952,-0.893066406,0.382324219,0.575683594
316,1148001293,0.287280798,0.228646919,-0.926680923,0.080321267,6.337239265,0.130041137,-5.678719521,42.3682785,55.93002701,-14.49818325,-0.902832031,0.388183594,0.576171875
317,1148009626,0.291688174,0.23008135,-0.924669802,0.083457947,5.327950954,-0.171202272,-5.892860889,33.4290123,71.7621994,-17.11161423,-0.903808594,0.390136719,0.537109375
318,1148017959,0.296909094,0.231372625,-0.922400177,0.086537383,4.483226776,-0.742901981,-6.366983891,29.84473038,83.5645752,-17.2912178,-0.916015625,0.391601563,0.536132813
319,1148026292,0.302903473,0.232477516,-0.919879317,0.089579009,4.086756706,-1.43758142,-6.287828922,26.44952202,94.05874634,-16.77718544,-0.917480469,0.390136719,0.497558594
320,1148034625,0.309596747,0.233295858,-0.917114079,0.092862472,4.15230751,-1.550319791,-5.892930031,26.37470627,105.4873352,-13.81251907,-0.927246094,0.393554688,0.498046875
321,1148042958,0.3172777,0.233842805,-0.913974881,0.096441649,4.219950676,-0.675272822,-5.968526363,26.26158905,120.3930511,-11.56746674,-0.924804688,0.39453125,0.454101563
322,1148051291,0.325627893,0.234169126,-0.910575509,0.099911191,3.982195377,0.326192528,-6.07717371,22.10982132,130.3192749,-11.0202589,-0.94140625,0.395996094,0.449707031
323,1148059624,0.334766477,0.234080225,-0.907025278,0.102184221,3.858591557,0.974105895,-5.24663496,2.937604904,137.1457672,-12.72777271,-0.94140625,0.395507813,0.409179688
324,1148067957,0.344848275,0.233458295,-0.903362513,0.10252656,4.02278471,1.293577433,-4.696763515,-26.47795296,144.4037476,-16.6752491,-0.951660156,0.395019531,0.401855469
325,1148076290,0.355978191,0.232452288,-0.899406254,0.101550654,4.278589725,1.674677849,-4.79317379,-47.62112808,154.6941376,-20.55472755,-0.953125,0.389648438,0.360839844
326,1148084623,0.367901295,0.231124714,-0.89517349,0.099464625,4.384722233,1.677267075,-5.140044689,-65.08076477,163.1903992,-24.02476883,-0.966308594,0.386230469,0.359863281
327,1148092956,0.38038218,0.229506552,-0.890663445,0.096713826,4.560334682,0.744084895,-5.310992718,-76.1145401,169.3160553,-25.4327507,-0.968261719,0.384765625,0.320800781
328,1148101289,0.393314898,0.227802396,-0.885748684,0.094113745,4.866546631,-0.149628341,-5.421990871,-75.62080383,177.9860382,-25.49193382,-0.982910156,0.3828125,0.320800781
329,1148109622,0.406657398,0.2263062,-0.880273461,0.092373244,5.029175282,-0.710506439,-5.430770874,-64.56106567,188.008667,-25.64326477,-0.973632813,0.375488281,0.28125
330,1148117955,0.420188189,0.225185424,-0.874256313,0.091696538,5.268652439,-1.253175378,-5.437450886,-49.50455856,196.5787201,-26.18160629,-0.987792969,0.374023438,0.270019531
331,1148126288,0.433837026,0.224629134,-0.867628932,0.092444524,5.594798088,-1.664237976,-5.596433163,-28.68630028,204.8037872,-26.76364708,-0.977539063,0.374511719,0.229492188
332,1148134621,0.447465211,0.224789932,-0.860366523,0.094935246,5.969471455,-2.008556366,-5.892000198,-2.766219139,213.2374115,-26.87050056,-0.995117188,0.373046875,0.212890625
333,1148142954,0.461119831,0.225785255,-0.852353156,0.099409774,6.306228161,-2.309320211,-6.25891304,26.75758934,222.8065948,-26.88765144,-0.980957031,0.369628906,0.166015625
334,1148151287,0.474703878,0.22766605,-0.843580306,0.105808243,6.559916496,-2.204669237,-6.443888187,56.16410065,231.9696503,-27.33372498,-0.995605469,0.368652344,0.142089844
335,1148159620,0.488312989,0.230351612,-0.83400321,0.113693297,6.708348274,-1.591206074,-6.667080879,79.76926422,240.5953827,-29.51851463,-0.981445313,0.366210938,0.0859375
336,1148167953,0.501870692,0.233784735,-0.823697507,0.122440971,6.775524616,-0.795174658,-6.751345634,95.97361755,246.8643188,-34.52823639,-0.989746094,0.364257813,0.057617188
337,1148176286,0.515444696,0.237671629,-0.812774599,0.13124375,7.041770935,-0.011719842,-6.698200226,100.7263336,250.3389435,-41.30194855,-0.974609375,0.358886719,-0.004882813
338,1148184619,0.529125929,0.241653308,-0.801361024,0.13945809,7.563768864,0.785690069,-6.566763401,95.34635925,253.3052216,-48.32913589,-0.984863281,0.358398438,-0.035644531
339,1148192952,0.543027103,0.245437115,-0.789509654,0.146816611,8.00967598,1.592632413,-6.507894516,84.59501648,256.0832214,-54.24539185,-0.95703125,0.351074219,-0.09375
340,1148201285,0.557118297,0.248756975,-0.777387679,0.152990073,8.371770859,2.194453239,-6.623235703,68.15653229,257.4718628,-59.36170578,-0.966796875,0.340332031,-0.119140625
341,1148209618,0.571351647,0.25129208,-0.765193403,0.157757625,8.675271034,2.190369844,-6.590807438,46.79743576,256.0406494,-62.2719841,-0.936523438,0.33203125,-0.168457031
342,1148217951,0.585728049,0.252834976,-0.753017545,0.161123008,9.049814224,2.06806612,-6.324568272,23.69273567,255.0521393,-63.11244965,-0.943847656,0.328613281,-0.193847656
343,1148226284,0.600310624,0.253309965,-0.740840077,0.163144767,9.441170692,2.037852287,-6.121806145,0.487097085,254.5727081,-63.30506897,-0.908691406,0.319335938,-0.239746094
344,1148234617,0.614962041,0.252830327,-0.728699744,0.163994968,9.899868965,2.037372589,-5.667205811,-19.67668152,253.3511505,-63.3108902,-0.918457031,0.316894531,-0.255371094
345,1148242950,0.629593015,0.251488537,-0.716586769,0.163915306,10.48281479,1.751963973,-5.666591167,-36.2496109,251.3267517,-62.34909439,-0.879394531,0.313476563,-0.288574219
346,1148251283,0.643977821,0.249365509,-0.704630494,0.163106784,11.22319794,1.083257914,-5.861647129,-49.7256813,247.0806732,-59.90761185,-0.889648438,0.310058594,-0.308105469
347,1148259616,0.657916188,0.246805713,-0.692833602,0.161906332,12.24185753,0.55292505,-6.596413136,-56.18932343,240.7076721,-57.55069733,-0.846191406,0.309570313,-0.332519531
348,1148267949,0.671389163,0.243950605,-0.681186616,0.160338402,13.33610535,0.583340168,-6.195768833,-61.14599991,234.5990753,-56.56505203,-0.85546875,0.305664063,-0.349609375
349,1148276282,0.684471011,0.240874305,-0.669585526,0.158533558,13.83855057,0.908954203,-5.41268158,-64.16941833,229.9620972,-55.61956787,-0.81640625,0.308105469,-0.37109375
350,1148284615,0.696946502,0.237669632,-0.658149779,0.156895787,13.32920837,1.028964877,-5.109146595,-62.21876907,223.8968811,-51.0385704,-0.82421875,0.308105469,-0.388671875
351,1148292948,0.708568454,0.234617501,-0.647025883,0.15569663,12.08635998,0.189188734,-5.012761593,-54.645504,214.0779114,-45.31789017,-0.787109375,0.310546875,-0.404296875
352,1148301281,0.719165802,0.23188667,-0.636413276,0.154937953,11.03058338,0.077378094,-4.462549686,-45.40734863,200.9173279,-40.07632828,-0.791015625,0.311035156,-0.419433594
353,1148309614,0.728683889,0.229311034,-0.62652564,0.154598594,10.22824192,0.724593878,-4.25294733,-38.28489304,185.1345825,-32.64781189,-0.747070313,0.311035156,-0.430175781
354,1148317947,0.737077534,0.226620495,-0.617657244,0.154460594,9.478700638,1.581966281,-3.708109379,-36.34368134,166.2843475,-24.06335831,-0.761230469,0.312988281,-0.440917969
355,1148326280,0.744351506,0.223302945,-0.610132813,0.154315755,8.59540081,2.313294172,-3.291764736,-42.10457611,144.3213043,-12.21941376,-0.718261719,0.313964844,-0.44921875
356,1148334613,0.750320017,0.219080642,-0.604398191,0.154029623,7.480541706,2.245471954,-2.660684347,-52.35768127,116.6726379,2.171541929,-0.731445313,0.315917969,-0.454589844
357,1148342946,0.754852235,0.214229792,-0.600637436,0.153417915,6.711152554,1.58312583,-2.174268961,-61.39253616,84.6055603,13.04910469,-0.698730469,0.322265625,-0.455078125
358,1148351279,0.757882416,0.209452957,-0.598721445,0.152562216,6.499372005,0.77652514,-2.427628517,-62.11663818,52.28694534,18.48461342,-0.711914063,0.329589844,-0.453613281
359,1148359612,0.759459376,0.205549344,-0.598301291,0.151675507,6.676088333,0.26237762,-2.896705389,-52.21650314,22.7213726,18.35694885,-0.681640625,0.3359375,-0.443359375
360,1148367945,0.7597543,0.202893615,-0.599051893,0.150808647,6.747831345,0.017612234,-3.52376914,-37.84641647,-2.510685205,14.2529974,-0.705078125,0.337402344,-0.444335938
361,1148376278,0.758885562,0.201585323,-0.600802124,0.149971887,6.687925339,-0.114399761,-4.21920681,-22.34247208,-25.31570053,8.694466591,-0.680664063,0.344238281,-0.44140625
362,1148384611,0.756997168,0.201438457,-0.603428304,0.149167091,7.043092728,-0.10609144,-4.607750416,-8.942023277,-45.12401962,3.939003468,-0.706542969,0.349121094,-0.440917969
363,1148392944,0.754287064,0.202325165,-0.606654525,0.148608312,7.813484669,0.029300774,-5.620309353,4.905025959,-59.65822601,1.288054347,-0.682128906,0.349121094,-0.437011719
364,1148401277,0.751008391,0.203817919,-0.610281408,0.148323283,8.601577759,0.082212143,-5.714035511,14.23823547,-69.00387573,1.330370903,-0.711914063,0.351074219,-0.442382813
365,1148409610,0.747410834,0.205556303,-0.614121199,0.148247182,9.213196754,0.258717388,-5.738405704,18.98432922,-73.78417969,2.688060999,-0.694824219,0.350097656,-0.432617188
366,1148417943,0.743584931,0.207422718,-0.618085921,0.148409978,9.577778816,0.472193986,-5.824644089,22.71184921,-76.59427643,4.867692947,-0.732421875,0.352050781,-0.431640625
367,1148426276,0.739527822,0.209432319,-0.62218219,0.1487436,9.716604233,0.41014722,-5.526081085,26.01135063,-79.65088654,6.250231266,-0.707519531,0.348632813,-0.429199219
368,1148434609,0.735885441,0.209800228,-0.626647413,0.147540599,10.31440258,0.936012566,-0.405106544,-5.772431374,-80.97911835,4.87683773,-0.74609375,0.354980469,-0.431152344
369,1148442942,0.733619273,0.205320641,-0.63202399,0.142093211,13.57443619,3.707439423,10.53096199,-97.23534393,-80.65301514,3.538746119,-0.726074219,0.354980469,-0.422363281
370,1148451275,0.729215622,0.204877749,-0.637202621,0.142271861,20.68633652,7.094425678,1.272750854,-1.179032445,-89.33673096,28.82698059,-0.764160156,0.365234375,-0.413085938
371,1148459608,0.723942161,0.207288474,-0.641377211,0.146878093,26.89022064,-0.69229722,2.216146469,70.64315033,-79.9210434,47.10279083,-0.741699219,0.361816406,-0.418945313
372,1148467941,0.719465971,0.214673191,-0.642719924,0.152295187,21.90921593,-6.426098824,0.733171999,130.7671051,-52.50923157,1.613917232,-0.774414063,0.360351563,-0.417480469
373,1148476274,0.714074612,0.228171051,-0.641487837,0.162872478,12.02319908,-0.822649717,-4.093559742,244.9538879,-32.61149597,-7.040477753,-0.751464844,0.342285156,-0.430664063
374,1148484607,0.707884014,0.242143273,-0.640251875,0.174191654,3.670917511,1.56387794,-3.73086977,258.6833801,-38.44185638,-2.168759823,-0.786132813,0.321289063,-0.448730469
375,1148492940,0.701389253,0.254984021,-0.639705896,0.183878124,1.166504145,5.212302208,-0.394073725,232.6404266,-50.46305084,-5.108399868,-0.767578125,0.300292969,-0.46875
376,1148501273,0.695251048,0.263708711,-0.641141593,0.189789027,2.660629511,9.68987751,-1.040001869,153.4682922,-69.36943054,0.764488697,-0.803710938,0.284667969,-0.485351563
377,1148509606,0.689316869,0.267589033,-0.64534986,0.191730022,6.395457745,10.7841959,-3.404593229,64.15865326,-95.71865082,15.02253151,-0.784179688,0.275878906,-0.488769531
378,1148517939,0.68397516,0.268789351,-0.650632203,0.191328004,10.08649731,8.048052788,-2.513673544,12.96147728,-102.3116074,19.00744247,-0.823242188,0.27734375,-0.479003906
379,1148526272,0.679778278,0.268119514,-0.655883551,0.189284712,11.16231155,2.675422192,-2.659727097,-23.47650909,-92.79372406,17.21712112,-0.806640625,0.275390625,-0.46484375
380,1148534605,0.676178157,0.266764492,-0.66084969,0.186804667,11.33442593,-0.314113081,-2.6080966,-35.26633072,-84.70059967,16.66888618,-0.844726563,0.283203125,-0.448730469
381,1148542938,0.672657311,0.265659541,-0.665403426,0.18491593,11.7125864,-2.431079149,-2.729001284,-26.81120682,-78.4731369,18.24625015,-0.832519531,0.284179688,-0.446289063
382,1148551271,0.669389248,0.264023572,-0.669760644,0.183381692,11.97275257,-3.212496758,-2.480911016,-28.88977051,-71.84362793,24.95470047,-0.867675781,0.288085938,-0.437011719
383,1148559604,0.666581631,0.261510909,-0.673934817,0.181910351,10.81932068,-2.823364019,-2.285167217,-37.60342407,-63.31698227,31.8347683,-0.856445313,0.294433594,-0.435546875
384,1148567937,0.663942277,0.259109557,-0.677724063,0.180919051,9.146310806,-2.460551739,-2.711125851,-31.76416016,-56.94046021,33.34688187,-0.885742188,0.301757813,-0.424316406
385,1148576270,0.661336422,0.257062048,-0.68123728,0.180188045,8.404003143,-2.426706076,-2.601641893,-25.55329704,-53.89054108,31.38454247,-0.8671875,0.303222656,-0.423339844
386,1148584603,0.658536673,0.256069332,-0.684314847,0.180194482,8.757081985,-1.337036133,-3.196164846,-7.27397728,-51.9238205,27.12518501,-0.900390625,0.311035156,-0.411132813
387,1148592936,0.655501068,0.256062776,-0.687084258,0.180732757,9.595624924,0.656128347,-3.198926687,8.240442276,-51.73516083,22.16509628,-0.886230469,0.311523438,-0.4140625
388,1148601269,0.652497351,0.256069988,-0.689885199,0.18092221,10.23515606,2.042898893,-2.430117607,4.892549515,-53.16958237,18.91671371,-0.919921875,0.312011719,-0.40625
389,1148609602,0.649639606,0.25583446,-0.692707717,0.18075344,10.23370647,2.958091259,-2.291146755,-1.265525937,-52.43340683,17.71696663,-0.905761719,0.315917969,-0.411132813
390,1148617935,0.646948099,0.255290926,-0.69555521,0.180239379,9.5178442,2.943058968,-2.138939619,-7.939792633,-51.72393417,17.2414608,-0.94140625,0.319824219,-0.397460938
391,1148626268,0.64428395,0.254517049,-0.69848901,0.179530069,8.986674309,1.921345711,-1.540309668,-12.17852879,-52.13433838,17.95354271,-0.922363281,0.322265625,-0.3984375
392,1148634601,0.641445458,0.253754705,-0.701456904,0.179201677,9.191712379,1.315651536,-1.178996444,-7.878986359,-53.01577377,21.75862312,-0.955078125,0.327148438,-0.379394531
393,1148642934,0.638234913,0.253567874,-0.704328656,0.179664746,9.847465515,1.139654517,-1.665945649,6.356000423,-54.1986618,23.78920746,-0.939941406,0.324707031,-0.375488281
394,1148651267,0.63458252,0.254255205,-0.707037628,0.180986017,10.97804832,0.632562459,-1.983105898,24.29595184,-56.43060303,23.35708046,-0.971191406,0.327636719,-0.360351563
395,1148659600,0.630836785,0.255509555,-0.709440768,0.182900116,11.88791847,0.093599051,-2.204921007,36.08550262,-53.79211807,22.20467758,-0.958984375,0.327148438,-0.360351563
396,1148667933,0.627191186,0.257407635,-0.711311817,0.185491234,11.74145508,0.327825397,-2.586723328,49.27116013,-47.65772629,19.6531868,-0.990234375,0.328125,-0.349609375
397,1148676266,0.623842001,0.259191871,-0.712978244,0.187887058,10.64301395,0.778361261,-2.176684618,45.84233856,-43.17167282,17.61893272,-0.9765625,0.321289063,-0.353515625
398,1148684599,0.621005893,0.259862572,-0.714938521,0.188904166,9.409733772,0.973959088,-2.194538116,20.19186211,-42.919384,16.41372681,-1.004394531,0.325683594,-0.341796875
399,1148692932,0.618524373,0.259337962,-0.717388391,0.18847771,8.864443779,1.284229517,-2.104569435,-6.752694607,-45.44594574,16.67980766,-0.995605469,0.326660156,-0.343261719
400,1148701265,0.616538584,0.257613957,-0.720242143,0.186454043,9.019877434,0.985700011,-2.488862038,-35.52111816,-46.80007935,15.06873798,-1.019042969,0.329101563,-0.318847656
401,1148709598,0.614760995,0.255416214,-0.723218799,0.183806583,9.700321198,0.1152872,-3.019141197,-46.77198029,-46.54795837,14.39511585,-1.008789063,0.330566406,-0.314453125
402,1148717931,0.613163352,0.253116101,-0.726065218,0.18108356,10.37712669,-1.137755632,-2.969775677,-48.68658066,-43.8928566,13.84005451,-1.037597656,0.3359375,-0.290039063
403,1148726264,0.611634552,0.25139901,-0.728523135,0.178758368,10.92011642,-1.683512211,-2.935046434,-39.07661819,-39.76336288,9.875402451,-1.024414063,0.338867188,-0.287597656
404,1148734597,0.610088289,0.250449032,-0.730493665,0.177328795,11.00455475,-1.187254786,-2.352044106,-22.38843918,-34.85953903,8.05444622,-1.05078125,0.341308594,-0.262207031
405,1148742930,0.608541727,0.250017226,-0.73216331,0.176363632,10.4970541,-0.787101388,-2.603273153,-12.64629936,-31.76612091,5.725133419,-1.037597656,0.343261719,-0.259765625
406,1148751263,0.607053041,0.249808103,-0.733651876,0.175602317,9.867311478,-0.387249976,-2.705102444,-8.485850334,-29.74450684,4.410993576,-1.060058594,0.341308594,-0.240234375
407,1148759596,0.605659723,0.249746799,-0.734958291,0.175037652,9.378061295,0.004156761,-2.674478769,-5.160349846,-26.70470047,3.712644577,-1.048339844,0.342773438,-0.244628906
408,1148767929,0.604191005,0.24997963,-0.73611933,0.174901873,8.880415916,-0.029976068,-2.834134817,2.238467693,-25.72920418,3.987639189,-1.071777344,0.342285156,-0.22265625
409,1148776262,0.602700353,0.250290126,-0.737256169,0.174812078,8.690719604,-0.699526429,-2.704128265,3.475892305,-25.5397644,3.555040359,-1.057617188,0.339355469,-0.224609375
410,1148784595,0.601279557,0.25092116,-0.73817867,0.174907029,8.903719902,-0.569540143,-2.887887001,8.287477493,-23.42814827,0.928273201,-1.074707031,0.338378906,-0.200683594
411,1148792928,0.59988755,0.251678944,-0.738983095,0.175200731,9.252243996,-0.070312411,-2.816759348,11.52714252,-21.53215981,0.806375086,-1.064453125,0.337402344,-0.203125
412,1148801261,0.598668337,0.252067834,-0.739851117,0.175148278,9.609350204,0.044956781,-2.500455618,4.225261688,-20.85865402,1.505438924,-1.086425781,0.334960938,-0.180175781
413,1148809594,0.597598791,0.252245069,-0.740719616,0.174875408,10.00520229,0.860760272,-2.336788654,-0.288877428,-19.34203148,1.476059079,-1.078613281,0.332519531,-0.186035156
414,1148817927,0.596585035,0.252052069,-0.741727889,0.174340963,10.15470695,1.097875118,-2.427205086,-6.516187668,-20.1901474,3.459396124,-1.096679688,0.333007813,-0.169433594
415,1148826260,0.595696688,0.251571178,-0.742830276,0.173375696,9.978745461,0.788515091,-2.413357973,-13.94209099,-20.23645973,2.877645493,-1.084960938,0.329589844,-0.170410156
416,1148834593,0.594858944,0.250942886,-0.743973196,0.172258437,9.5362463,0.966335416,-1.997835279,-16.96519089,-20.47557259,3.165755033,-1.102050781,0.333007813,-0.145019531
417,1148842926,0.593864024,0.250113815,-0.74533236,0.171017736,9.052339554,0.352593809,-1.754952908,-19.84792328,-23.55202866,5.324449062,-1.090820313,0.329589844,-0.14453125
418,1148851259,0.592736721,0.249462023,-0.746673882,0.170025468,8.852696419,0.026865026,-1.691574931,-15.34939194,-24.57879829,5.792573929,-1.108886719,0.328125,-0.125488281
419,1148859592,0.591344416,0.249026373,-0.748069406,0.169376895,8.883940697,-0.504927993,-1.622010231,-9.28286171,-26.81930161,7.177050114,-1.095214844,0.329589844,-0.125976563
420,1148867925,0.589713454,0.248859897,-0.749442518,0.169237718,8.91285038,-1.104696155,-1.646196008,-0.976774037,-28.22035408,9.030088425,-1.111816406,0.328613281,-0.099121094
421,1148876258,0.587785244,0.249227569,-0.750810742,0.16933988,9.439502716,-0.483551443,-1.031921744,6.862789631,-31.42149734,6.153044224,-1.09765625,0.327636719,-0.103027344
422,1148884591,0.585831046,0.250001967,-0.7520715,0.169376388,10.40827084,0.534493923,-0.551460862,9.820034027,-32.23419189,1.121097684,-1.112304688,0.32421875,-0.083984375
423,1148892924,0.583609402,0.251048952,-0.753381312,0.169675156,10.90630531,0.346943647,0.023103671,15.5225172,-34.89413834,1.193586469,-1.102050781,0.322265625,-0.086425781
424,1148901257,0.581160247,0.252286553,-0.754701972,0.17037496,10.86019135,0.026193414,0.100280702,21.97824097,-36.6315918,3.017425776,-1.119140625,0.317871094,-0.062988281
425,1148909590,0.578425109,0.254015416,-0.755918562,0.171716169,10.27911758,0.523550153,-0.136220679,33.7863121,-37.47798538,3.340065241,-1.103027344,0.319335938,-0.069824219
426,1148917923,0.575394094,0.255678415,-0.757382989,0.172974661,9.566568375,0.943600535,-0.496053219,32.86154556,-42.87400818,4.944699764,-1.120605469,0.318359375,-0.046386719
427,1148926256,0.572263956,0.257024944,-0.75914669,0.173629194,9.47068119,1.726884246,-0.533793449,23.69402885,-47.44971085,4.73504591,-1.106445313,0.316894531,-0.056152344
428,1148934589,0.569170117,0.257876754,-0.761244655,0.173349649,9.529426575,2.673357725,-1.071867704,9.133124352,-52.01762009,3.658682108,-1.120117188,0.311523438,-0.028320313
429,1148942922,0.566076338,0.257892907,-0.763842106,0.172025174,9.578860283,2.421204567,-1.115234733,-9.544046402,-57.4568634,5.989919186,-1.109863281,0.312011719,-0.026367188
430,1148951255,0.562996924,0.257198095,-0.76683116,0.169859216,9.349489212,1.779974461,-1.461119294,-24.88837242,-61.83874512,8.270522118,-1.12109375,0.309570313,0.000488281
431,1148959588,0.559762478,0.256213605,-0.77009505,0.167251527,9.296378136,1.057211876,-2.093597889,-31.88287926,-66.31785583,9.245284081,-1.105957031,0.310546875,0.001953125
432,1148967921,0.556287646,0.255209059,-0.773516953,0.164568335,9.650300026,0.35269469,-3.001416206,-32.35269165,-70.47148895,9.981394768,-1.122558594,0.312011719,0.031738281
433,1148976254,0.552813649,0.253270447,-0.777324915,0.161294073,10.44673157,-0.984209239,-2.3577075,-46.66177368,-73.21185303,16.76234055,-1.109863281,0.311035156,0.035644531
434,1148984587,0.548759878,0.251561344,-0.781016231,0.159974456,11.10573959,-3.533810139,-3.695500851,-21.74468994,-72.38819885,30.03485298,-1.123046875,0.313476563,0.068359375
435,1148992920,0.544533968,0.25075525,-0.78422904,0.159962893,10.98425388,-4.797939777,-4.338728905,0.76711154,-67.92979431,28.94021225,-1.104492188,0.313964844,0.067871094
436,1149001253,0.541137755,0.250746101,-0.786758482,0.159079179,11.23615932,-0.820275545,-2.893508673,-4.029771805,-58.78300095,9.62389946,-1.114746094,0.312011719,0.094238281
437,1149009586,0.538952649,0.249314725,-0.789486945,0.155181199,9.835618973,3.714665174,-2.965251923,-51.84464264,-54.28738403,0.601284325,-1.099609375,0.312988281,0.091308594
438,1149017919,0.536509991,0.247034758,-0.792800844,0.150320247,8.669741631,6.302359581,-3.250648022,-68.94846344,-63.06767273,5.24874258,-1.110839844,0.310058594,0.125
439,1149026252,0.532749176,0.245711371,-0.79635042,0.147067532,8.029479027,4.118587971,-4.112113953,-40.36906815,-75.54470825,10.20581532,-1.09765625,0.308105469,0.127929688
440,1149034585,0.528543532,0.245426595,-0.799653232,0.144778088,9.291905403,0.789337575,-3.153094769,-20.20539284,-77.60155487,5.959787369,-1.105957031,0.307128906,0.157226563
441,1149042918,0.524188817,0.246254936,-0.802512169,0.143378437,10.08715153,0.092675574,-3.916190147,-0.934847355,-75.07874298,-0.988637567,-1.094726563,0.30859375,0.157714844
442,1149051251,0.519627512,0.247970626,-0.805012822,0.143006012,10.60354614,0.402113587,-3.37820673,18.19525146,-73.19599152,-4.20915699,-1.102539063,0.302246094,0.186523438
443,1149059584,0.514886737,0.250034243,-0.807378888,0.143222213,10.404459,0.934519529,-3.150867224,27.62322044,-72.7676239,-3.721256256,-1.092285156,0.298339844,0.182128906
444,1149067917,0.509904146,0.252039045,-0.809861481,0.143517196,10.18042088,0.899518907,-2.560586691,29.13542938,-76.02228546,-1.87246263,-1.096679688,0.299316406,0.209472656
445,1149076250,0.504707217,0.253813505,-0.812543452,0.143598884,10.1218071,0.822924912,-2.633295298,25.50395966,-79.95610046,0.338583887,-1.083007813,0.294921875,0.205566406
446,1149084583,0.499311537,0.255293459,-0.81545341,0.143343404,10.16505814,0.346054912,-2.621685505,19.92540932,-84.48906708,2.450338125,-1.088378906,0.294921875,0.233886719
447,1149092916,0.49379158,0.256603718,-0.818490863,0.142813623,10.36798191,0.360504895,-2.373543501,15.88371468,-87.26560974,3.189673185,-1.074707031,0.290527344,0.229492188
448,1149101249,0.48807928,0.257764935,-0.821685314,0.142012507,10.46549988,0.449798048,-2.547295809,12.17434406,-91.2835083,3.928829908,-1.081542969,0.291503906,0.26171875
449,1149109582,0.482249975,0.258715898,-0.825037599,0.140756801,10.61991882,0.581948102,-1.799321175,5.746920109,-94.76013947,4.070096016,-1.065917969,0.288085938,0.259277344
450,1149117915,0.476247996,0.259466797,-0.828539371,0.139232874,10.66931725,0.761481166,-1.94060111,1.686673284,-98.38266754,5.398796558,-1.07421875,0.287597656,0.2890625
451,1149126248,0.46995309,0.259977102,-0.832265556,0.137435943,10.84762764,0.527261674,-1.555291653,-2.364421129,-103.6203156,7.74224472,-1.057128906,0.286621094,0.291992188
452,1149134581,0.46347779,0.260140896,-0.836195946,0.135240197,11.35813999,0.734592438,-0.727528512,-8.928574562,-107.8590393,10.17411804,-1.062011719,0.28515625,0.321777344
453,1149142914,0.456445932,0.260157555,-0.840393245,0.133089706,12.4218111,0.499499112,-1.122473001,-7.831953526,-115.4673386,14.17384338,-1.047851563,0.283691406,0.318847656
454,1149151247,0.448781371,0.260243177,-0.844767869,0.13127996,13.68825722,0.203469187,-1.759577394,-1.540947676,-122.8567581,17.27640724,-1.048828125,0.287109375,0.354003906
455,1149159580,0.440805972,0.260528803,-0.849092543,0.129827604,14.57357025,1.569629669,-0.573061526,5.070165634,-125.2203217,17.57523727,-1.035644531,0.286132813,0.35546875
456,1149167913,0.432407439,0.260625154,-0.853592575,0.128361121,14.69158077,2.544734001,-0.594964743,4.939179897,-130.9594879,21.05183601,-1.037109375,0.286621094,0.385253906
457,1149176246,0.423536777,0.260082603,-0.858445823,0.126660898,14.95378685,2.167033672,-0.420349985,-0.510398209,-138.3343811,29.29327393,-1.0234375,0.292480469,0.381835938
458,1149184579,0.414313495,0.258678854,-0.863677263,0.124457508,15.19282722,2.264005423,0.988269448,-10.89033794,-144.9765472,38.46387863,-1.021972656,0.296875,0.422363281
459,1149192912,0.404900759,0.256647885,-0.869145334,0.121540546,15.8377037,4.029593945,2.518622398,-22.63323593,-150.11763,43.05789948,-1.008300781,0.300292969,0.419921875
460,1149201245,0.395281166,0.25406453,-0.874847114,0.117664784,16.57822418,5.370295525,2.890379429,-36.86680603,-156.2739105,45.44810486,-1.004394531,0.309082031,0.458984375
461,1149209578,0.385618925,0.250604361,-0.880788684,0.112717196,16.27420807,4.802622795,1.760835528,-54.71580124,-160.5706482,51.13251495,-0.986328125,0.3125,0.459960938
462,1149217911,0.37623176,0.246138245,-0.886878133,0.106355242,14.8524828,4.067225456,0.593492806,-78.41049194,-161.1843262,55.84405899,-0.979003906,0.315429688,0.502929688
463,1149226244,0.366671175,0.240924075,-0.893133759,0.099087872,13.50859547,3.570230961,-2.010690451,-92.90908051,-166.3675842,61.17308044,-0.965332031,0.319335938,0.51171875
464,1149234577,0.355779767,0.23508279,-0.899872601,0.091567591,12.02715492,1.699709535,-6.02139616,-95.49742126,-184.8989868,70.94132233,-0.956542969,0.32421875,0.556640625
465,1149242910,0.344028801,0.228834361,-0.906905651,0.082458794,11.58935356,0.473631561,-6.135507107,-114.6566925,-201.896637,70.31890106,-0.93359375,0.329101563,0.568847656
466,1149251243,0.332616895,0.222308651,-0.913706541,0.071299702,13.0309267,-0.563580871,-5.208223343,-142.4280853,-202.4129944,62.88600159,-0.924316406,0.331054688,0.618652344
467,1149259576,0.322435319,0.215426698,-0.919808149,0.059817441,14.72486115,-1.854370236,-5.96835041,-151.1052856,-184.7191467,62.5993042,-0.905273438,0.328125,0.62890625
468,1149267909,0.313718051,0.209710643,-0.924702168,0.050266288,14.54528809,-3.615025759,-7.058964729,-124.9394455,-155.7505341,51.57108307,-0.897460938,0.328125,0.673828125
469,1149276242,0.306403071,0.207057253,-0.928062141,0.044089053,12.82041264,-5.166900158,-7.282835484,-71.72676086,-124.0582733,21.82465363,-0.879882813,0.328613281,0.674804688
470,1149284575,0.300186396,0.207279935,-0.930167079,0.041367523,11.27087307,-5.095390797,-6.982155323,-17.94850731,-96.28182983,-4.598255634,-0.877929688,0.326660156,0.700195313
471,1149292908,0.295176953,0.20887953,-0.931401014,0.041598592,9.870158195,-3.28285408,-6.432307243,22.61014366,-70.02682495,-13.17682362,-0.870605469,0.33203125,0.686035156
472,1149301241,0.291161925,0.210296363,-0.932252407,0.043635454,7.94677639,-0.806150794,-6.597445488,42.30797577,-50.02929688,-5.188157558,-0.875,0.334472656,0.698730469
473,1149309574,0.287736148,0.21081318,-0.933076739,0.046173114,5.716851711,-0.088342831,-6.964155674,43.46517944,-40.82269287,7.922853947,-0.870605469,0.345214844,0.671386719
474,1149317907,0.284574986,0.210406095,-0.934059262,0.047728609,4.516316414,-0.63009125,-5.105374813,26.31098557,-39.86936188,16.18286705,-0.869140625,0.346679688,0.684082031
475,1149326240,0.282273918,0.209281623,-0.935005009,0.047819581,4.649628162,-0.708009183,-3.580036402,2.247997284,-32.89990997,18.99560165,-0.866699219,0.354492188,0.666015625
476,1149334573,0.281251967,0.208638638,-0.935432792,0.048281159,5.659974098,-0.497339368,-3.955837965,5.520906448,-13.23774815,11.91155815,-0.867675781,0.357421875,0.677734375
477,1149342906,0.281502485,0.208915308,-0.935210288,0.04990758,6.607961178,-0.825091064,-5.107123852,20.85774422,7.916556358,1.875333905,-0.864257813,0.362304688,0.650390625
478,1149351239,0.282830626,0.209915251,-0.934447765,0.052421831,7.135578632,-2.025004625,-5.332485676,32.33557892,26.38115501,-6.28005743,-0.877441406,0.3671875,0.658691406
479,1149359572,0.285658896,0.21154435,-0.933016658,0.055912662,6.824849606,-2.569993973,-5.408546925,43.49295425,50.14871216,-13.57821178,-0.881835938,0.374511719,0.622558594
480,1149367905,0.289949745,0.213341385,-0.931055069,0.059577893,5.710686207,-2.320497274,-5.018804073,42.53361893,71.85224915,-17.7156086,-0.889648438,0.375,0.622558594
481,1149376238,0.295462519,0.215131447,-0.92864418,0.0635508,4.756291389,-1.790247679,-5.49716711,43.23029327,89.70365906,-18.72020721,-0.898925781,0.379394531,0.583007813
482,1149384571,0.301808685,0.216907844,-0.925879717,0.067880161,4.37831974,-1.233976603,-5.942290306,45.56888199,103.3432922,-18.87096786,-0.91015625,0.3828125,0.581054688
483,1149392904,0.309176058,0.218440294,-0.922772884,0.071991615,4.392467022,-0.944837153,-5.806660652,39.04701233,116.8446503,-18.64649773,-0.914550781,0.384277344,0.534179688
484,1149401237,0.317354053,0.219759136,-0.919364095,0.075898103,4.415718079,-0.782799125,-5.939081192,33.40961838,128.511261,-18.51338768,-0.930175781,0.38671875,0.525390625
485,1149409570,0.326358855,0.220930859,-0.91560179,0.079693288,4.559004784,-0.535768569,-5.591700077,29.221138,139.826004,-19.07442474,-0.931152344,0.390625,0.483398438
486,1149417903,0.336221755,0.2219899,-0.911454558,0.083211377,4.726948261,-0.505864382,-5.294704437,23.05180168,152.1390686,-21.00503922,-0.948242188,0.388183594,0.473144531
487,1149426236,0.346958488,0.223089978,-0.906806529,0.086895853,4.906924248,-0.565246224,-5.403311253,23.22123337,165.372467,-23.28171921,-0.946777344,0.388671875,0.42578125
488,1149434569,0.358409256,0.224366352,-0.901623547,0.090970762,4.994354725,-0.316397727,-5.497035027,27.39047241,178.3130646,-26.10965919,-0.96484375,0.388183594,0.414550781
489,1149442902,0.370596439,0.225760341,-0.895882607,0.095305525,5.033760071,-0.019019695,-5.941652775,29.6089344,190.3554535,-28.93160629,-0.966308594,0.38671875,0.357910156
490,1149451235,0.383351862,0.227196142,-0.889662445,0.099610269,5.053331375,0.339095354,-6.016089439,28.32627106,200.1454468,-31.83036613,-0.983398438,0.391113281,0.341796875
491,1149459568,0.396806359,0.228376299,-0.883021414,0.103249453,5.104177952,0.871472001,-5.783914566,17.22109604,208.6985016,-34.48312378,-0.979492188,0.387207031,0.279785156
492,1149467901,0.410925478,0.229079485,-0.876057804,0.105753995,5.204579353,1.637659192,-5.816066265,-0.782701731,216.1344604,-36.84185028,-0.998535156,0.38671875,0.268554688
493,1149476234,0.425644994,0.229103357,-0.868854284,0.106905028,5.486996174,2.0114429,-5.938866615,-22.46860504,220.9633484,-37.93130493,-0.986328125,0.380371094,0.218261719
494,1149484567,0.440782934,0.228396297,-0.861441016,0.107066855,5.980106831,1.492004395,-6.1531353,-39.57863617,225.6339569,-36.26791382,-0.999511719,0.380371094,0.204589844
495,1149492900,0.456361026,0.226956591,-0.853708565,0.106795624,6.437674046,0.456867009,-6.085224152,-50.05179596,232.0281982,-31.85429573,-0.989257813,0.374023438,0.154785156
496,1149501233,0.472174823,0.225168258,-0.845530212,0.10689801,6.695389748,-0.625305474,-6.232880592,-47.94525528,239.7451019,-27.16470337,-0.999511719,0.372558594,0.136230469
497,1149509566,0.488052458,0.223566309,-0.836733103,0.108162805,6.99587822,-1.446838975,-6.495450974,-32.48864365,247.3702698,-23.78531456,-0.984863281,0.37109375,0.087402344
498,1149517899,0.503793895,0.222543031,-0.827254534,0.110972375,7.259691238,-1.80252409,-6.811766148,-9.414901733,254.7274475,-21.97707558,-0.993652344,0.372070313,0.066894531
499,1149526232,0.519374549,0.222388089,-0.816980302,0.115478076,7.530436516,-1.768779159,-7.076883316,17.62068558,261.8308105,-22.29189491,-0.967773438,0.369140625,0.016601563
500,1149534565,0.534753323,0.223151654,-0.805908501,0.121458262,7.759178162,-1.283624411,-7.268652439,42.61460876,268.7592773,-24.20002747,-0.9765625,0.368164063,-0.010742188
501,1149542898,0.549986839,0.224744886,-0.794033766,0.128502592,8.031218529,-0.597686648,-7.444839478,62.31251144,274.5033264,-27.79724503,-0.947753906,0.364257813,-0.060058594
502,1149551231,0.565024495,0.227088332,-0.781443596,0.136097372,8.386909485,0.3253645,-7.533030987,75.85385132,278.5860901,-33.68581772,-0.953613281,0.364257813,-0.098144531
503,1149559564,0.58001405,0.229759663,-0.768288255,0.143268481,8.9054842,1.349346042,-7.248079777,75.07077026,280.1170959,-42.17918015,-0.922363281,0.356445313,-0.151855469
504,1149567897,0.595119774,0.232099578,-0.754814267,0.149051338,9.586655617,2.363348007,-6.927933216,58.00530624,280.557251,-50.98559952,-0.928710938,0.354003906,-0.181152344
505,1149576230,0.610369503,0.233723193,-0.741124928,0.153475031,10.03384113,2.829014301,-7.00050354,38.03415298,280.5690308,-55.64826584,-0.888183594,0.340820313,-0.229492188
506,1149584563,0.625468969,0.234541431,-0.727458477,0.156784758,9.890694618,2.333577394,-7.448084354,20.33572388,277.3396606,-56.4065361,-0.890625,0.337890625,-0.256835938
507,1149592896,0.64024812,0.234613299,-0.71398139,0.158958972,9.818516731,1.743235946,-7.320348263,3.205311537,270.1072998,-57.38122559,-0.849121094,0.33203125,-0.290039063
508,1149601229,0.654592454,0.233911857,-0.700874329,0.159898698,10.2150259,1.605669856,-7.075843811,-15.15705204,260.6311035,-58.53707886,-0.854003906,0.329589844,-0.311035156
509,1149609562,0.66845125,0.232413307,-0.6882357,0.159646258,11.21909332,1.9066962,-6.579576492,-33.26406097,249.3419037,-58.97941589,-0.813476563,0.326171875,-0.337402344
510,1149617895,0.681799948,0.230058104,-0.676138341,0.158295587,12.21172428,2.002935648,-6.479005337,-51.11798859,238.2168427,-58.14900208,-0.817382813,0.323730469,-0.351074219
511,1149626228,0.69472456,0.22692132,-0.664471209,0.156015679,12.50946903,1.69639051,-6.310320854,-66.65476227,228.7300568,-57.27315903,-0.778320313,0.322265625,-0.366210938
512,1149634561,0.707012236,0.223474041,-0.653223991,0.153264657,12.16327763,0.970878541,-6.807705879,-72.86559296,218.3639374,-56.29652023,-0.787109375,0.321777344,-0.375976563
513,1149642894,0.718462884,0.220036462,-0.642486811,0.15034695,11.58795547,0.629287302,-6.643193245,-72.74795532,205.1201935,-54.63551331,-0.745605469,0.323242188,-0.389648438
514,1149651227,0.728923082,0.216310292,-0.632598817,0.147303492,11.11538029,0.663122475,-5.811921597,-75.49205017,188.4244385,-48.74583435,-0.7578125,0.32421875,-0.397460938
515,1149659560,0.738094926,0.212867096,-0.623541296,0.14525032,10.51063824,0.816338897,-5.683574677,-61.86994934,171.0801239,-36.17236328,-0.717773438,0.330078125,-0.407226563
516,1149667893,0.745707154,0.21011807,-0.615468383,0.1448033,9.147890091,0.181508869,-5.832437038,-38.47162628,151.2099915,-19.85312843,-0.728027344,0.331054688,-0.421386719
517,1149676226,0.751658976,0.208235756,-0.608576775,0.145873874,7.468649387,-0.769596636,-4.801448822,-14.28045177,127.5612869,-4.880095005,-0.689941406,0.333007813,-0.428710938
518,1149684559,0.755793452,0.207296878,-0.6031937,0.148188516,6.004023552,-1.086488485,-4.590693951,8.047434807,98.5664444,8.022512436,-0.704589844,0.33203125,-0.435058594
519,1149692892,0.758162379,0.206889138,-0.599709153,0.150778398,5.402014732,-0.970111132,-4.327041626,17.02468491,63.79675293,15.50450039,-0.669921875,0.332519531,-0.435058594
520,1149701225,0.758939862,0.206715837,-0.598269105,0.152811512,6.04418087,-0.544947982,-4.396947861,15.15538025,27.38155556,16.86615944,-0.686523438,0.33203125,-0.443359375
521,1149709558,0.758455694,0.206869006,-0.598516703,0.154032975,7.004432201,-0.089107573,-4.935266495,11.93220329,-3.668087482,13.16286373,-0.659667969,0.333984375,-0.439941406
522,1149717891,0.756949127,0.207389832,-0.600110054,0.154542908,7.423418999,0.230683148,-5.506911278,9.961959839,-28.85868263,8.704556465,-0.686523438,0.331542969,-0.445800781
523,1149726224,0.754601002,0.208222002,-0.602756321,0.154608846,7.522439957,0.119795375,-5.662974358,9.703807831,-48.71784592,6.303254128,-0.662597656,0.331542969,-0.437988281
524,1149734557,0.75144881,0.209541351,-0.60617274,0.154821873,7.613904953,-0.201939076,-6.141525269,16.64051819,-63.96328735,7.708697796,-0.691894531,0.334960938,-0.439941406
525,1149742890,0.74758774,0.211469859,-0.610088766,0.15550825,7.701420784,-0.551264465,-6.446875572,27.85800934,-74.94895935,10.46384525,-0.673339844,0.334472656,-0.435546875
526,1149751223,0.743219376,0.213907719,-0.614297867,0.156540439,8.030184746,-0.495005161,-6.032299042,36.84756088,-82.32280731,11.68894958,-0.705078125,0.331542969,-0.435546875
527,1149759556,0.73851645,0.216616556,-0.618713498,0.157679543,8.577316284,-0.074130371,-5.373877048,41.05031204,-87.45866394,11.8045845,-0.688964844,0.333496094,-0.436035156
528,1149767889,0.733642459,0.219522193,-0.623185575,0.158799157,9.108504295,0.598949075,-4.869720936,43.27869415,-90.04180908,10.48754597,-0.719726563,0.333496094,-0.439453125
529,1149776222,0.72928369,0.221425518,-0.627627432,0.158739358,10.01512241,1.725095153,-0.018241137,21.55966568,-86.57764435,5.935922623,-0.706542969,0.332519531,-0.441894531
530,1149784555,0.727392852,0.217992008,-0.632250071,0.153745353,13.50601578,5.123847008,15.30947113,-82.44902802,-70.57791138,-2.297774315,-0.743652344,0.336425781,-0.437011719
531,1149792888,0.724215448,0.217126235,-0.636430383,0.152718484,23.49269867,10.40088367,6.038299561,-17.49186516,-70.74256897,16.43067551,-0.723632813,0.345703125,-0.4296875
532,1149801221,0.720168412,0.219317362,-0.639065206,0.157643035,34.49697876,-0.5468449,4.324873924,70.89421844,-51.74599457,46.18321228,-0.755859375,0.344726563,-0.430175781
533,1149809554,0.717073977,0.226793289,-0.638667643,0.162701249,22.46363449,-10.464324,1.137356877,128.1000671,-24.31880188,-10.13854885,-0.727050781,0.337402344,-0.431640625
534,1149817887,0.711550176,0.241983548,-0.636162698,0.174458191,9.198179245,-1.707668304,-5.866751194,275.3197327,-21.32269669,-12.98365402,-0.764160156,0.319335938,-0.453125
535,1149826220,0.704700649,0.257569611,-0.6343925,0.186009452,0.622075021,-0.524737537,-5.220359325,280.037323,-41.66872787,-12.88479328,-0.739746094,0.294433594,-0.475585938
536,1149834553,0.697188377,0.272019684,-0.633826315,0.195438728,-0.897942662,2.928207159,-0.692844272,249.7851257,-63.80476761,-17.52585411,-0.778320313,0.273925781,-0.494628906
537,1149842886,0.690009356,0.280581087,-0.636471272,0.20016019,2.68541646,8.717710495,-0.321967006,142.3920441,-93.36471558,-0.289525092,-0.7578125,0.255371094,-0.505371094
538,1149851219,0.682810724,0.284562886,-0.641971886,0.201653436,7.235891342,10.92904091,-4.470931053,62.9096489,-120.5896683,20.30547333,-0.797363281,0.248535156,-0.502441406
539,1149859552,0.675916314,0.288500071,-0.646883309,0.203580707,11.98200226,8.002028465,-2.535500288,66.75318909,-110.4372253,21.58845329,-0.783691406,0.243164063,-0.499023438
540,1149867885,0.669995189,0.292254448,-0.650544643,0.20611611,13.38411999,-1.167518854,-3.708921909,70.11404419,-87.34560394,21.22028923,-0.82421875,0.237304688,-0.483398438
541,1149876218,0.664391875,0.297402114,-0.65245086,0.210812181,12.85792542,-3.684796333,-2.277209759,105.9661179,-63.4633522,20.71952629,-0.804199219,0.231445313,-0.482910156
542,1149884551,0.659448564,0.301944405,-0.653842688,0.215512231,10.5132513,1.647224188,-1.002905011,99.2742157,-51.2035675,22.16088104,-0.841308594,0.225097656,-0.481933594
543,1149892884,0.654957831,0.303823978,-0.656582713,0.218216822,8.32858181,6.051727772,-0.66174829,51.29615021,-59.60570145,32.2438736,-0.825683594,0.220214844,-0.487792969
544,1149901217,0.651492715,0.301950097,-0.661273539,0.217022598,7.841513634,4.497632504,-0.996969819,-27.83806801,-73.08978271,36.11022568,-0.860351563,0.221191406,-0.483886719
545,1149909550,0.648706496,0.297471792,-0.667204738,0.213368848,8.481271744,1.54989028,-2.122922182,-80.07219696,-80.31874084,40.88472366,-0.845703125,0.228515625,-0.479492188
546,1149917883,0.6462605,0.2918697,-0.673377931,0.209092185,8.662751198,-0.606985092,-3.423827887,-97.90071106,-78.75756073,45.62757492,-0.880371094,0.242675781,-0.47265625
547,1149926216,0.643402159,0.28755796,-0.678957999,0.205811724,9.105483055,-1.326921821,-4.473389626,-73.8567276,-76.85923767,41.3561058,-0.865234375,0.255371094,-0.458007813
548,1149934549,0.639881253,0.285703212,-0.683551311,0.204161063,10.55969238,0.052283999,-5.239285946,-31.4771328,-74.98215485,30.79057884,-0.898925781,0.262695313,-0.444824219
549,1149942882,0.63642031,0.285283118,-0.687170506,0.203414887,11.73000813,1.932889819,-3.431850433,-7.86580658,-66.13973999,21.27861404,-0.884765625,0.265625,-0.448242188
550,1149951215,0.63333869,0.285126776,-0.690231621,0.202887744,10.98265171,3.221314907,-2.034720659,-3.39983964,-57.7294426,17.44103432,-0.920410156,0.270507813,-0.436523438
551,1149959548,0.630333066,0.28452608,-0.693399012,0.202289477,9.310765266,2.092149973,-1.789371371,-8.552799225,-56.77498245,21.25592804,-0.910644531,0.2734375,-0.443359375
552,1149967881,0.627384603,0.283481956,-0.696703851,0.201564714,8.404326439,-0.011897551,-1.624172211,-14.19715214,-56.88202286,24.75697899,-0.939941406,0.277832031,-0.428222656
553,1149976214,0.624082625,0.28312549,-0.699702799,0.201928511,8.639751434,-0.771873057,-1.443529844,4.381495476,-55.08874512,27.36945343,-0.9296875,0.27734375,-0.426269531
554,1149984547,0.620276093,0.283664078,-0.702399194,0.2035335,9.591614723,-1.370200396,-2.276449442,26.82083893,-55.20304871,29.6089344,-0.961914063,0.28515625,-0.410644531
555,1149992880,0.615877569,0.285178035,-0.704876184,0.206194758,11.25977039,-1.707088232,-2.514338732,48.25675964,-57.45579147,30.01614761,-0.950683594,0.275390625,-0.4140625
556,1150001213,0.611863792,0.28676644,-0.706978381,0.208729029,12.27896214,-0.865272701,-2.223495483,47.22005844,-51.46506119,25.6407795,-0.980957031,0.280761719,-0.402832031
557,1150009546,0.608465731,0.287903965,-0.708965063,0.21035181,11.72032452,0.272604376,-2.600745201,32.45845032,-46.59543991,20.12994385,-0.967285156,0.280273438,-0.41015625
558,1150017879,0.605762661,0.288060367,-0.711093307,0.210755095,10.60083771,0.803256691,-1.807541013,9.207708359,-43.2053833,18.04335594,-0.997070313,0.281738281,-0.393554688
559,1150026212,0.603652298,0.287113965,-0.713567138,0.209737688,9.225222588,0.45101434,-3.050106764,-17.22973061,-42.50857925,16.63434029,-0.982421875,0.284667969,-0.393554688
560,1150034545,0.601533949,0.286004812,-0.716211021,0.208322823,8.880487442,-0.34360531,-3.797361612,-22.93050957,-45.31090164,15.63800335,-1.012695313,0.2890625,-0.375488281
561,1150042878,0.599494159,0.284879655,-0.718770146,0.206925407,9.20541954,-1.19724071,-3.622664213,-22.9645443,-43.5045433,15.3732481,-0.998046875,0.290527344,-0.373535156
562,1150051211,0.597647369,0.284115165,-0.720927119,0.205811694,9.700431824,-1.55623734,-3.867952824,-16.7926178,-38.41219711,12.02932358,-1.028320313,0.294921875,-0.352539063
563,1150059544,0.595901191,0.283646554,-0.722825527,0.204861209,10.12217045,-1.813882589,-4.07991457,-12.41149426,-35.26482391,9.128450394,-1.01171875,0.296875,-0.349121094
564,1150067877,0.594369054,0.283492476,-0.724295318,0.20433338,10.61858463,-1.311568022,-3.184424639,-5.25171566,-29.08667564,7.204866886,-1.039550781,0.299316406,-0.329101563
565,1150076210,0.592938781,0.283852756,-0.725311458,0.204384819,10.50038624,-0.287187874,-3.835765123,5.589631557,-23.31488419,4.735165596,-1.029785156,0.297363281,-0.331054688
566,1150084543,0.591496944,0.284518749,-0.726126432,0.204742,10.2533884,0.45858565,-3.505143166,11.75185585,-21.69050407,3.451328039,-1.056152344,0.296875,-0.315429688
567,1150092876,0.590031862,0.285198182,-0.72694546,0.205116749,9.881321907,1.206035614,-3.525801659,12.10269356,-21.68584061,3.508421659,-1.043457031,0.298828125,-0.317871094
568,1150101209,0.588545501,0.285823613,-0.727815151,0.205432072,9.611577034,1.022750854,-3.482258797,11.0254097,-22.62957382,3.859106541,-1.068847656,0.297851563,-0.299804688
569,1150109542,0.587164402,0.286550045,-0.728551447,0.205762565,9.428045273,0.848721981,-3.566547155,11.94549942,-20.4730587,2.116722822,-1.056640625,0.295410156,-0.301757813
570,1150117875,0.585942268,0.28724587,-0.729176044,0.206063524,9.141386986,0.715282381,-3.30435586,11.10376453,-18.25837326,1.326728344,-1.079101563,0.295898438,-0.28125
571,1150126208,0.584912777,0.287642658,-0.729825914,0.206134319,8.916308403,0.638779044,-2.647812605,5.541193008,-16.33509827,1.995772123,-1.065917969,0.293457031,-0.285644531
572,1150134541,0.583948314,0.287822515,-0.730562091,0.206010684,8.984623909,0.507549167,-2.788858891,1.35526216,-16.78811073,2.795602322,-1.092285156,0.295898438,-0.263183594
573,1150142874,0.582929075,0.287751406,-0.731514215,0.205616519,9.754827499,0.191978753,-2.448942423,-3.785785198,-19.16980362,4.126672268,-1.077636719,0.291015625,-0.267578125
574,1150151207,0.582013845,0.287399948,-0.732573926,0.204927295,10.437644,0.195766717,-1.978173971,-9.702675819,-19.62440491,4.740543842,-1.100097656,0.295410156,-0.243164063
575,1150159540,0.581111312,0.287040651,-0.733664811,0.20408693,10.60965633,0.375024647,-1.646742582,-11.43998814,-20.05646706,3.67232728,-1.087890625,0.29296875,-0.247558594
576,1150167873,0.580294549,0.286660254,-0.734733999,0.203097329,10.44606686,0.307321697,-1.573868752,-13.3782692,-19.81223679,2.391051531,-1.112304688,0.295898438,-0.224121094
577,1150176206,0.579451442,0.286223501,-0.735848725,0.202081621,9.835946083,-0.02372643,-1.353622317,-14.12802505,-20.12826538,2.980102539,-1.09765625,0.291992188,-0.226074219
578,1150184539,0.578504562,0.285767019,-0.737039685,0.201098055,9.218811035,-0.201074719,-0.881191492,-13.75113678,-21.86122322,4.048882484,-1.114746094,0.293945313,-0.201171875
579,1150192872,0.577332795,0.285549432,-0.738261759,0.200290516,9.002758026,-0.225840688,-0.907777905,-9.282449722,-24.11125565,3.747941256,-1.104492188,0.29296875,-0.206054688
580,1150201205,0.575891495,0.285436541,-0.739631057,0.199547648,9.062407494,-0.151594788,-0.531178534,-7.127909184,-28.29826546,4.543673515,-1.123535156,0.293945313,-0.181640625
581,1150209538,0.574205935,0.285384595,-0.741161168,0.19880116,9.191641808,0.036441643,-0.321291119,-6.1779809,-31.99784851,5.168637753,-1.115722656,0.291992188,-0.181152344
582,1150217871,0.572234213,0.285498887,-0.742831886,0.198085457,9.320519447,0.273516417,-0.551122963,-3.799927473,-36.59638214,5.080064774,-1.129394531,0.292480469,-0.159179688
583,1150226204,0.570026278,0.285605669,-0.744721353,0.197199985,9.599333763,0.565553606,-0.385901541,-5.272416592,-41.15337753,5.290640831,-1.116210938,0.291503906,-0.157226563
584,1150234537,0.567644894,0.285625696,-0.746825457,0.196080148,9.670178413,1.060122728,-0.736318171,-8.24170208,-45.52305603,5.688252926,-1.134765625,0.292480469,-0.133300781
585,1150242870,0.565110505,0.285413086,-0.749229848,0.194531947,9.897698402,1.314714074,-0.692122221,-14.68049812,-50.28085709,6.296518803,-1.120117188,0.293457031,-0.133789063
586,1150251203,0.562438846,0.284879357,-0.751932263,0.192620739,10.0975399,1.469123244,-1.000926375,-21.15975571,-54.78907013,8.348461151,-1.140625,0.291015625,-0.103515625
587,1150259536,0.559582353,0.283975244,-0.754957914,0.190427765,10.11641216,0.80177474,-1.223614097,-27.08198357,-59.12679672,11.73547459,-1.126464844,0.295410156,-0.106445313
588,1150267869,0.556961119,0.281621248,-0.758554935,0.187288299,10.32023907,-1.138318539,-0.067531548,-50.47012329,-61.17657852,21.1397171,-1.138183594,0.295898438,-0.073242188
589,1150276202,0.553752422,0.279278815,-0.762213171,0.185448512,10.3910532,-3.589683771,-1.983987808,-34.71255112,-62.58731842,32.70890045,-1.128417969,0.299804688,-0.069824219
590,1150284535,0.55029726,0.278038591,-0.765424609,0.184366569,10.10634327,-3.501306057,-1.707640767,-16.28277969,-61.85179138,25.85412979,-1.139160156,0.306152344,-0.0390625
591,1150292868,0.547088385,0.277996063,-0.768017709,0.183193743,10.30630875,1.959290981,-2.228102207,-7.562727928,-57.79567337,9.542728424,-1.125488281,0.306152344,-0.039550781
592,1150301201,0.544212461,0.277192116,-0.77099669,0.180444211,9.354043961,4.21842289,-1.911738157,-32.17538452,-61.45836258,6.38753891,-1.140136719,0.304199219,-0.010742188
593,1150309534,0.541141212,0.27531907,-0.774710953,0.176598132,8.803640366,3.781441927,-3.188467741,-52.89932251,-70.40309143,12.77007961,-1.127441406,0.304199219,-0.011230469
594,1150317867,0.537682712,0.27328074,-0.778716862,0.172666192,9.208908081,1.823035359,-3.218657494,-54.26897812,-76.78084564,15.97071934,-1.140625,0.30859375,0.024414063
595,1150326200,0.533949792,0.272179395,-0.782325447,0.169650942,9.834038734,1.31787324,-3.949722052,-35.5558548,-75.40850067,11.8641386,-1.127929688,0.308105469,0.022949219
596,1150334533,0.530006647,0.272049814,-0.785499334,0.167544752,10.10439396,1.28787148,-3.521975517,-16.83394241,-73.49471283,6.956951618,-1.141601563,0.307128906,0.057617188
597,1150342866,0.52585417,0.272674799,-0.78834641,0.16623573,10.20865822,1.620706916,-3.497688532,-1.190657377,-71.9777298,3.876155138,-1.124511719,0.306640625,0.05859375
598,1150351199,0.521510184,0.273634523,-0.79106319,0.165435493,10.25514221,1.386348128,-3.062854767,7.765361786,-72.12239838,3.875848532,-1.13671875,0.306640625,0.089355469
599,1150359532,0.516926706,0.27488336,-0.793713212,0.165056586,10.05033398,0.783406913,-3.495265245,15.47580147,-73.17398834,4.05074501,-1.122070313,0.3046875,0.0859375
600,1150367865,0.512094438,0.27634418,-0.796362042,0.164921105,9.944711685,0.462955564,-2.796747208,20.58062172,-75.58760071,4.022339344,-1.133300781,0.305664063,0.119140625
601,1150376198,0.507022023,0.278105021,-0.798967957,0.16503045,10.14350891,1.016848564,-3.173457384,26.3899498,-77.52797699,2.853916168,-1.121582031,0.298339844,0.112304688
602,1150384531,0.501736879,0.279812247,-0.801714718,0.16497615,10.37532616,0.66066438,-2.78882122,24.70799255,-81.48911285,3.311749697,-1.131347656,0.302734375,0.141113281
603,1150392864,0.496451527,0.281468749,-0.804456592,0.164801389,10.40045452,0.755165458,-2.432621717,23.04730988,-81.6791153,3.033628464,-1.119140625,0.30078125,0.142578125
604,1150401197,0.490899384,0.283038706,-0.807359159,0.164550409,10.10293961,0.493594915,-2.97092557,22.27645493,-85.95466614,4.686348438,-1.127929688,0.298339844,0.168457031
605,1150409530,0.485087067,0.284407616,-0.810481369,0.164076403,10.04671097,0.169484675,-2.270228624,18.96670532,-90.62483215,6.870187283,-1.116699219,0.295410156,0.16796875
606,1150417863,0.479138851,0.285736561,-0.813672543,0.163450047,9.984127045,0.590803623,-2.434125423,17.3693676,-93.21920013,6.859841824,-1.121582031,0.296875,0.196777344
607,1150426196,0.472794354,0.286921531,-0.81712538,0.162621871,10.07249451,0.462245196,-2.590432644,15.14085102,-99.7489624,9.077267647,-1.108398438,0.299316406,0.189941406
608,1150434529,0.466299206,0.287827194,-0.820742846,0.161554977,10.26661873,0.780866385,-1.960053086,10.85970592,-102.9274292,11.63431263,-1.112792969,0.296875,0.227539063
609,1150442862,0.459636956,0.288371116,-0.824580908,0.160126671,10.18498993,1.351490855,-1.503578067,4.644996643,-106.7755203,14.65890789,-1.099121094,0.300292969,0.228027344
610,1150451195,0.45263651,0.288223356,-0.828920007,0.157915965,10.8830204,1.145658612,-0.683909178,-8.373906136,-115.437149,20.27361679,-1.103027344,0.298828125,0.260253906
611,1150459528,0.445071101,0.287524402,-0.833700716,0.155509338,12.44432449,0.244692326,-1.255325675,-12.74083138,-124.1497421,28.3360672,-1.0859375,0.302246094,0.26171875
612,1150467861,0.436816692,0.286712587,-0.838695049,0.15354611,14.0375433,-0.626995325,-1.837940335,-6.097950935,-131.4182434,34.64110947,-1.08984375,0.303710938,0.30078125
613,1150476194,0.428387821,0.28610456,-0.843542218,0.151865184,15.14658928,0.785540581,-0.118815571,-0.599306047,-131.8435211,33.79711533,-1.078125,0.307617188,0.297851563
614,1150484527,0.419677436,0.285586208,-0.848362625,0.150302097,15.29907894,2.423131227,-0.229659319,2.440552711,-134.6957092,33.91094208,-1.078613281,0.312011719,0.3359375
615,1150492860,0.410449088,0.284517914,-0.853561997,0.148363382,15.3913126,1.947890878,-0.30555582,-3.847512245,-143.2930603,40.74331665,-1.063964844,0.317871094,0.336425781
616,1150501193,0.40115881,0.282495171,-0.859143376,0.145394668,15.60718536,2.644451141,1.429423809,-21.87984848,-148.2305603,47.72903061,-1.063964844,0.323730469,0.372558594
617,1150509526,0.391829938,0.279445082,-0.865113437,0.141270548,16.24031067,4.614786625,3.054797649,-41.79863358,-153.3538971,55.11515427,-1.048828125,0.326660156,0.370605469
618,1150517859,0.382361382,0.275298595,-0.871554911,0.13565211,17.04447365,5.177829742,3.4380548,-65.89150238,-161.0795746,62.15497589,-1.049804688,0.334960938,0.411132813
619,1150526192,0.372993231,0.270161778,-0.878259778,0.1286349,16.7896347,4.219599247,2.256245375,-88.69326019,-164.8774567,67.5298996,-1.029296875,0.341796875,0.418457031
620,1150534525,0.36360842,0.264423609,-0.885033071,0.12076427,15.04788017,2.080490351,-0.479295999,-102.1868439,-167.371994,70.64987183,-1.01953125,0.34765625,0.463867188
621,1150542858,0.353633076,0.258491009,-0.891868651,0.112671375,12.89431,0.872391582,-5.018112659,-103.7613144,-175.6115417,73.17749786,-1.002441406,0.352539063,0.471191406
622,1150551191,0.342818022,0.252607733,-0.898802102,0.104012646,11.70713902,0.134359986,-6.842983723,-107.6883469,-188.2195892,71.40367889,-0.994140625,0.357910156,0.521484375
623,1150559524,0.33222869,0.246565834,-0.905570149,0.093652226,11.56749439,0.618751884,-6.645049572,-129.9535828,-190.6450195,64.50463867,-0.975097656,0.36328125,0.526367188
624,1150567857,0.322900504,0.239698693,-0.911985099,0.081005052,12.30841064,0.541084588,-6.866429806,-166.0893097,-179.7071228,61.4524498,-0.967285156,0.361816406,0.577636719
625,1150576190,0.314317733,0.232645765,-0.917841971,0.068155304,13.21286869,0.511779547,-8.055071831,-171.2285919,-168.6798859,60.25717163,-0.94921875,0.359375,0.586914063
626,1150584523,0.307108164,0.226398841,-0.922567248,0.057414461,13.29989624,-0.879164457,-8.852769852,-144.5162659,-140.1243439,54.2471199,-0.942871094,0.354492188,0.630859375
627,1150592856,0.301565021,0.222517669,-0.925783157,0.049684122,12.00457573,-3.530024052,-8.325041771,-100.2669678,-105.4716415,30.95995331,-0.925292969,0.352539063,0.629882813
628,1150601189,0.297228873,0.220857978,-0.927848995,0.044402648,10.28104115,-4.617845058,-8.174470901,-62.84273529,-78.98623657,8.460393906,-0.919433594,0.354980469,0.656738281
629,1150609522,0.293590486,0.219938114,-0.929385364,0.040905993,8.416938782,-3.443531275,-6.603443623,-38.7964325,-63.356884,4.288829803,-0.914550781,0.349609375,0.641601563
630,1150617855,0.290686309,0.218823612,-0.930663764,0.038485885,6.320719719,-2.214658022,-6.004421711,-27.94379616,-49.15930557,9.922380447,-0.915039063,0.348632813,0.663085938
631,1150626188,0.288244873,0.218244419,-0.931573451,0.038126729,4.572947502,-2.463907957,-6.841416836,-0.605546892,-36.26923752,9.943086624,-0.909179688,0.353027344,0.644042969
632,1150634521,0.285985589,0.217572391,-0.93242836,0.038083997,4.164389133,-2.529946804,-4.540220737,2.543329477,-32.2961998,12.13868713,-0.910644531,0.350097656,0.658203125
633,1150642854,0.284797639,0.217185527,-0.932867885,0.038429491,4.959506035,-2.998266459,-4.051262379,5.656533718,-16.34188652,8.184069633,-0.903320313,0.359375,0.630859375
634,1150651187,0.284549445,0.218309745,-0.932511926,0.04233934,5.975085735,-2.517577171,-5.117196083,54.91162109,9.106076241,-0.091494285,-0.903808594,0.360351563,0.637695313
635,1150659520,0.285226941,0.220481813,-0.931469381,0.048955791,6.599179745,-2.344514608,-5.650392056,91.32674408,30.73911285,-5.565173149,-0.903808594,0.368652344,0.6015625
636,1150667853,0.286929131,0.22345084,-0.929768026,0.05719557,6.786644459,-3.121797085,-6.122763634,112.598175,51.27277374,-12.06733704,-0.910644531,0.375976563,0.594726563
637,1150676186,0.290106446,0.227061182,-0.927270055,0.066711299,6.268591404,-2.654616594,-6.546307087,127.5095139,76.24354553,-18.86284637,-0.912597656,0.385253906,0.550292969
638,1150684519,0.294736177,0.230677769,-0.92419219,0.076064087,5.228207111,-1.046055079,-6.112257957,121.4818573,97.01400757,-22.7133522,-0.924804688,0.39453125,0.536132813
639,1150692852,0.300699621,0.233931527,-0.920721352,0.084418595,4.366826534,0.602817357,-6.19041729,103.4620361,112.3075333,-24.80752563,-0.924804688,0.39453125,0.484375
640,1150701185,0.307592332,0.236520708,-0.917123258,0.091259815,3.788817167,1.521545291,-5.931488037,78.75287628,120.9651108,-24.12073898,-0.9375,0.399902344,0.475097656
641,1150709518,0.315410197,0.238488689,-0.913381159,0.096813768,3.523942947,1.715913177,-5.951261997,57.0249939,129.3713989,-23.37156868,-0.93359375,0.397949219,0.422851563
642,1150717851,0.323917389,0.240008906,-0.909502625,0.10137473,3.521644354,1.159183145,-5.788742542,40.56727982,136.4241638,-23.40963745,-0.948730469,0.401855469,0.415527344
643,1150726184,0.333252251,0.241035044,-0.905427933,0.105089419,3.855436325,0.753143668,-5.336204052,25.29945374,145.0904541,-22.79900932,-0.946289063,0.400878906,0.368164063
644,1150734517,0.343521088,0.241676122,-0.901060522,0.108048521,4.158889771,0.864503324,-5.348105431,11.47887516,156.5690765,-23.78974533,-0.961425781,0.396972656,0.358398438
645,1150742850,0.354738623,0.242099017,-0.896299064,0.110431515,4.409827709,0.980212986,-5.496188164,0.724401832,168.1459503,-26.51758194,-0.956542969,0.392089844,0.311035156
646,1150751183,0.366686672,0.242270604,-0.891219676,0.1121241,4.599639893,1.34062767,-5.558069229,-10.94381618,177.2349396,-28.96473885,-0.972167969,0.396972656,0.299316406
647,1150759516,0.379398406,0.242020056,-0.885858476,0.112856537,4.804056168,1.662304759,-5.574943066,-26.95740318,185.0244598,-30.7394104,-0.963378906,0.389160156,0.25390625
648,1150767849,0.392812192,0.241281182,-0.880242169,0.112491384,4.930675983,1.870236397,-5.444978714,-44.80900192,192.4560242,-32.46496201,-0.976074219,0.388671875,0.24609375
649,1150776182,0.406873554,0.239965424,-0.874369502,0.111116603,5.155465126,1.794125557,-5.169530869,-61.89684296,198.7869568,-32.77787399,-0.966796875,0.380859375,0.202148438
650,1150784515,0.421344548,0.238094762,-0.868249536,0.10918346,5.559932232,1.12785852,-5.463721275,-72.69368744,204.5410767,-30.68292427,-0.980957031,0.380859375,0.1953125
651,1150792848,0.43608892,0.235919982,-0.861722648,0.107706115,6.075689316,-0.018657653,-5.814264297,-69.28193665,211.6768799,-26.13874245,-0.966308594,0.374023438,0.153808594
652,1150801181,0.451003373,0.233778089,-0.854641736,0.107376188,6.479637146,-1.26394999,-6.117092133,-55.2340889,221.1251984,-21.71208763,-0.978027344,0.375976563,0.141601563
653,1150809514,0.465952337,0.23210822,-0.846888125,0.108596168,6.70095396,-2.079024792,-6.156237602,-33.18823242,229.5602875,-19.84921265,-0.959472656,0.372070313,0.098144531
654,1150817847,0.48085475,0.231282458,-0.838365436,0.111485064,6.973844528,-1.870964289,-6.125673294,-7.064199448,238.4414673,-21.38305092,-0.96875,0.375,0.0859375
655,1150826180,0.495709836,0.2313402,-0.829044402,0.115919381,7.25987339,-1.124686956,-6.250321388,17.9829998,246.3212433,-23.81671333,-0.947265625,0.368652344,0.03125
656,1150834513,0.510333717,0.232305795,-0.819006205,0.121740974,7.555160046,-0.408065796,-6.460760117,41.85643768,251.9567719,-26.62177849,-0.961425781,0.371582031,0.004394531
657,1150842846,0.524882793,0.233859658,-0.808293223,0.128328562,7.933980942,0.086598098,-6.401977539,55.99254227,256.9105225,-29.90674591,-0.930664063,0.368164063,-0.052246094
658,1150851179,0.539368451,0.235759854,-0.7970047,0.135208085,8.313944817,0.610905647,-6.585901737,62.94507599,261.0909729,-33.38525772,-0.941894531,0.366699219,-0.072753906
659,1150859512,0.553857446,0.237809762,-0.785185337,0.142024368,8.774148941,0.978443861,-6.807261944,64.35224152,264.1950684,-37.22044373,-0.906738281,0.360351563,-0.122558594
660,1150867845,0.568293393,0.239933088,-0.772916496,0.148570761,9.250213623,1.340371251,-6.777399063,63.03505707,266.409668,-41.43700409,-0.912109375,0.35546875,-0.1484375
661,1150876178,0.582739055,0.241944224,-0.760268331,0.15449518,9.569373131,1.520359993,-6.577662468,56.30727005,267.2848816,-46.36657333,-0.874511719,0.344238281,-0.196777344
662,1150884511,0.597126007,0.243626237,-0.747421801,0.15951784,9.836668968,1.559570551,-6.06079483,44.84151077,266.3264465,-50.69794083,-0.878417969,0.341308594,-0.222167969
663,1150892844,0.611381352,0.244912967,-0.734440863,0.163785681,10.0373373,1.494123459,-5.932761669,34.59364319,264.0732117,-52.97145081,-0.841308594,0.332519531,-0.258789063
664,1150901177,0.625364721,0.245768994,-0.721462071,0.167355478,10.06580162,1.242402434,-6.070953846,24.81182671,260.2693481,-53.89358521,-0.844726563,0.331054688,-0.282226563
665,1150909510,0.63901335,0.246203974,-0.708571553,0.170207232,10.17264175,0.834203601,-6.320466518,15.01958752,254.4135132,-54.79041672,-0.802246094,0.319335938,-0.309082031
666,1150917843,0.652319968,0.246222585,-0.695842028,0.172207639,10.76780033,0.737496376,-6.43781662,3.81985116,248.0740356,-56.90037918,-0.810546875,0.318847656,-0.331054688
667,1150926176,0.665361047,0.245544925,-0.683386087,0.173160031,11.61893654,1.014663577,-6.293112755,-12.1781292,240.8919525,-58.04738617,-0.763183594,0.310058594,-0.357421875
668,1150934509,0.678065479,0.244162858,-0.671285391,0.173165381,12.12901688,1.5187217,-6.480121613,-27.25871849,233.2420044,-58.12828445,-0.774902344,0.309082031,-0.376464844
669,1150942842,0.690214813,0.24218753,-0.659675062,0.172557071,12.11685562,1.505880356,-7.302301407,-37.73599625,222.6455994,-55.36998749,-0.730957031,0.309082031,-0.393066406
670,1150951175,0.701878786,0.23927936,-0.648732424,0.171045706,11.98791027,1.389669538,-6.432461739,-54.77332306,211.3612061,-52.1386528,-0.738769531,0.310058594,-0.402832031
671,1150959508,0.713231564,0.234913111,-0.638564169,0.168376848,11.73303032,1.643530965,-5.535414219,-79.95239258,200.5229645,-46.98560333,-0.69921875,0.308105469,-0.408203125
672,1150967841,0.723825634,0.229759678,-0.629184365,0.165567011,10.89896107,1.961736202,-5.599273682,-88.3048172,187.7009583,-37.18971252,-0.713867188,0.312011719,-0.413574219
673,1150976174,0.733504236,0.224002153,-0.620753825,0.162658781,9.912678719,0.868198395,-4.860850334,-94.42240143,171.2299042,-27.82390594,-0.669921875,0.31640625,-0.416992188
674,1150984507,0.741935909,0.218551874,-0.613250434,0.160277128,9.073065758,0.252541333,-4.914053917,-85.07571411,152.3315887,-19.52293205,-0.682128906,0.325683594,-0.427246094
675,1150992840,0.749004543,0.213616982,-0.60675633,0.158761844,8.210588455,0.461140007,-4.795051575,-70.62783051,131.8820038,-8.95995903,-0.641601563,0.329101563,-0.424316406
676,1151001173,0.754544795,0.209097281,-0.601608813,0.1581323,7.470511436,0.270122439,-3.947480917,-57.42071915,107.0773392,3.960844755,-0.655761719,0.336914063,-0.426757813
677,1151009506,0.758473277,0.204994991,-0.598075569,0.158111989,6.752672195,-0.24541235,-3.748554945,-46.92132187,77.75346375,14.9999218,-0.619628906,0.335449219,-0.419433594
678,1151017839,0.760823131,0.20131062,-0.59630388,0.158247739,6.204394817,-0.958904505,-3.789424181,-40.66146469,46.00877762,21.56307793,-0.64453125,0.34375,-0.423828125
679,1151026172,0.761606693,0.198736832,-0.596108258,0.158468649,6.228146553,-1.17739749,-3.985953093,-27.43756676,14.44643211,21.13749504,-0.61328125,0.345703125,-0.413574219
680,1151034505,0.760987639,0.197814167,-0.597146511,0.158688873,6.623037338,-1.102499485,-4.509289265,-9.005456924,-13.52509212,14.00637054,-0.636230469,0.350585938,-0.422363281
681,1151042838,0.759140909,0.198760435,-0.599077582,0.159072205,7.174839497,-0.822375119,-5.343344688,13.28249836,-36.60187531,5.480647087,-0.612304688,0.349609375,-0.415527344
682,1151051171,0.756361604,0.20102185,-0.601686537,0.159623072,7.509513378,-0.751701474,-5.569600582,29.45766068,-53.76274109,0.280822605,-0.641601563,0.352050781,-0.424804688
683,1151059504,0.75278604,0.204392731,-0.604739189,0.160704359,7.66762495,-0.633143067,-5.947727203,46.61055374,-65.91217804,-0.412032992,-0.62109375,0.348632813,-0.426269531
684,1151067837,0.748474658,0.208662316,-0.608124852,0.162568226,7.879665852,-0.280393451,-6.416440487,63.75725555,-75.2898941,2.781896591,-0.654296875,0.353027344,-0.432128906
685,1151076170,0.74355489,0.213607863,-0.611743152,0.165126726,8.198379517,-0.141005233,-6.67455864,77.74648285,-82.2193222,6.291708946,-0.629394531,0.342773438,-0.432617188
686,1151084503,0.738303304,0.219005361,-0.615370631,0.168114275,8.626223564,0.315257281,-6.342460155,86.93466949,-84.94075012,7.67147398,-0.669921875,0.33984375,-0.441894531
