PacketCounter,SampleTimeFine,Quat_W,Quat_X,Quat_Y,Quat_Z,Acc_X,Acc_Y,Acc_Z,Gyr_X,Gyr_Y,Gyr_Z,Mag_X,Mag_Y,Mag_Z
0, 1145384731, 0.9535080790519714, 0.0785612240433693, -0.28788143396377563, 0.04213416203856468, 0, 0, 0, 0, 0, 0, 0.118896484375, 0.836669921875, -0.740234375
1, 1145393064, 0.9577812552452087, 0.07797402143478394, -0.27328184247016907, 0.043505072593688965, 8.335233688354492, -0.5694145560264587, 9.672160148620605, 1.2475768327713013, 209.54605102539062, 1.9285577535629272, 0.205078125, 0.843505859375, -0.71484375
2, 1145401397, 0.9617757201194763, 0.07710824906826019, -0.25885891914367676, 0.045106250792741776, 8.472879409790039, -0.5488823652267456, 9.737211227416992, -1.4085288047790527, 207.35284423828125, 6.289825916290283, 0.22998046875, 0.839111328125, -0.727783203125
3, 1145409730, 0.9656164050102234, 0.07589542865753174, -0.24419274926185608, 0.046850793063640594, 8.628278732299805, -0.6156659722328186, 10.392721176147461, -5.1227898597717285, 209.6390838623047, 9.327414512634277, 0.314208984375, 0.839599609375, -0.6953125
4, 1145418063, 0.9692630171775818, 0.07472039759159088, -0.22926822304725647, 0.048810262233018875, 8.399007797241211, -0.45636945962905884, 10.339963912963867, -3.5825507640838623, 213.36776733398438, 11.842487335205078, 0.34130859375, 0.83251953125, -0.708984375
5, 1145426396, 0.9726614356040955, 0.07372160255908966, -0.21425798535346985, 0.050879333168268204, 7.463488578796387, 0.21672667562961578, 9.165513038635254, -0.5133041739463806, 212.99522399902344, 12.887434005737305, 0.422607421875, 0.8291015625, -0.6728515625
6, 1145434729, 0.9757315516471863, 0.0727822482585907, -0.19963450729846954, 0.052886176854372025, 6.52639102935791, 1.154737114906311, 8.298152923583984, 0.09945105016231537, 207.47830200195312, 12.440244674682617, 0.447509765625, 0.816650390625, -0.678955078125
7, 1145443062, 0.9785133600234985, 0.07163766026496887, -0.18551072478294373, 0.0544607900083065, 5.841139316558838, 2.2195403575897217, 9.275066375732422, -3.8512866497039795, 198.9907989501953, 7.968138217926025, 0.5234375, 0.808837890625, -0.640869140625
8, 1145451395, 0.981042206287384, 0.07023562490940094, -0.1718803346157074, 0.05550488457083702, 5.598188877105713, 2.6143157482147217, 10.71638011932373, -8.85430908203125, 192.0812530517578, 2.106365203857422, 0.538330078125, 0.795654296875, -0.646240234375
9, 1145459728, 0.9833780527114868, 0.06862940639257431, -0.1584838330745697, 0.05604361742734909, 5.556186676025391, 2.5064094066619873, 11.847474098205566, -12.738611221313477, 187.4541778564453, -3.8018341064453125, 0.612548828125, 0.79052734375, -0.59912109375
10, 1145468061, 0.9855095744132996, 0.06685950607061386, -0.145417720079422, 0.056168198585510254, 5.624813556671143, 2.351741313934326, 12.645275115966797, -15.974665641784668, 182.9583282470703, -8.62987232208252, 0.62890625, 0.778076171875, -0.605224609375
11, 1145476394, 0.9875030517578125, 0.06478499621152878, -0.13234686851501465, 0.05590475723147392, 6.2039337158203125, 2.384556770324707, 13.486099243164062, -20.697147369384766, 181.95687866210938, -13.117465019226074, 0.697021484375, 0.775146484375, -0.546630859375
12, 1145484727, 0.9894002676010132, 0.06261184811592102, -0.11877591907978058, 0.05531474947929382, 7.005840301513672, 2.5282068252563477, 14.337359428405762, -22.211715698242188, 189.0281982421875, -17.804847717285156, 0.708251953125, 0.763671875, -0.5478515625
13, 1145493060, 0.9912042021751404, 0.06057961657643318, -0.10429243743419647, 0.054478906095027924, 6.659317493438721, 2.5306200981140137, 13.37202262878418, -19.87946319580078, 200.31985473632812, -22.04269027709961, 0.77294921875, 0.759521484375, -0.479736328125
14, 1145501393, 0.9927685856819153, 0.05872524529695511, -0.09019286930561066, 0.05317728966474533, 5.807799339294434, 3.2339487075805664, 11.787015914916992, -18.2531795501709, 194.87530517578125, -28.199199676513672, 0.779052734375, 0.749755859375, -0.475830078125
15, 1145509726, 0.9941570162773132, 0.05643166974186897, -0.07640235871076584, 0.05128796026110649, 6.444549560546875, 4.354090690612793, 11.519001960754395, -25.02366065979004, 189.6614532470703, -35.24385070800781, 0.833984375, 0.748779296875, -0.395263671875
16, 1145518059, 0.9953868985176086, 0.05352756008505821, -0.0627778172492981, 0.04898061603307724, 6.767045497894287, 4.122340202331543, 11.182583808898926, -33.84281539916992, 187.95391845703125, -40.1315803527832, 0.8310546875, 0.740478515625, -0.3896484375
17, 1145526392, 0.9964239001274109, 0.05064979940652847, -0.04940703138709068, 0.0461873859167099, 6.699671268463135, 3.7471506595611572, 10.466195106506348, -33.90948486328125, 183.3502197265625, -46.44122314453125, 0.871826171875, 0.73828125, -0.304443359375
18, 1145534725, 0.9972541332244873, 0.04807819426059723, -0.0364006832242012, 0.0429871492087841, 7.04020881652832, 4.394426345825195, 9.316790580749512, -30.098737716674805, 178.3258819580078, -51.88911056518555, 0.85986328125, 0.737060546875, -0.296142578125
19, 1145543058, 0.997897207736969, 0.04568915441632271, -0.023767095059156418, 0.039360128343105316, 7.371214389801025, 4.970104217529297, 8.045853614807129, -27.902210235595703, 172.18887329101562, -57.431358337402344, 0.88671875, 0.737548828125, -0.2099609375
20, 1145551391, 0.9983612298965454, 0.04340976104140282, -0.011930234730243683, 0.035334888845682144, 7.288006782531738, 4.994080543518066, 8.27857494354248, -26.848745346069336, 161.42735290527344, -62.378875732421875, 0.86865234375, 0.73193359375, -0.20849609375
21, 1145559724, 0.9986682534217834, 0.04138581454753876, -0.0008435868076048791, 0.030798515304923058, 8.007777214050293, 5.451199054718018, 10.219429016113281, -23.718645095825195, 150.1849365234375, -68.87505340576172, 0.883544921875, 0.7333984375, -0.12548828125
22, 1145568057, 0.9988203644752502, 0.039793118834495544, 0.00985664501786232, 0.026032712310552597, 8.481719017028809, 5.309094429016113, 9.483027458190918, -17.852102279663086, 145.05006408691406, -71.78497314453125, 0.86474609375, 0.7333984375, -0.130859375
23, 1145576390, 0.998842179775238, 0.03852566331624985, 0.01982422173023224, 0.02091837115585804, 8.425309181213379, 5.091109275817871, 7.654252529144287, -13.57918643951416, 134.27366638183594, -76.04666137695312, 0.867919921875, 0.727294921875, -0.050048828125
24, 1145584723, 0.9987778067588806, 0.03713058680295944, 0.028686875477433205, 0.015555771999061108, 9.456850051879883, 5.063167572021484, 7.130191802978516, -15.48621654510498, 119.4472885131836, -78.91426849365234, 0.83544921875, 0.723876953125, -0.056640625
25, 1145593056, 0.9986348152160645, 0.03549257665872574, 0.03687088191509247, 0.010479947552084923, 10.598455429077148, 3.6300041675567627, 5.7546563148498535, -19.12189292907715, 110.00225830078125, -74.68504333496094, 0.828369140625, 0.7197265625, 0.016845703125
26, 1145601389, 0.9984337687492371, 0.03391525149345398, 0.044130027294158936, 0.005729697644710541, 11.428970336914062, 1.4175329208374023, 4.054594993591309, -18.476274490356445, 97.833984375, -69.74600982666016, 0.8017578125, 0.71728515625, -0.000732421875
27, 1145609722, 0.9982149600982666, 0.032554466277360916, 0.050059303641319275, 0.0012839914998039603, 11.67142391204834, 0.3223789632320404, 2.8050224781036377, -15.892873764038086, 79.44107055664062, -64.79987335205078, 0.795166015625, 0.716552734375, 0.059814453125
28, 1145618055, 0.9980348944664001, 0.03112201578915119, 0.0543346032500267, -0.0024570890236645937, 12.233417510986328, -0.24493783712387085, 3.278939723968506, -17.301233291625977, 57.296024322509766, -54.44900131225586, 0.775146484375, 0.716064453125, 0.0263671875
29, 1145626388, 0.9978950619697571, 0.02975679375231266, 0.05738002061843872, -0.005297424271702766, 12.363997459411621, -0.9850609302520752, 3.953629732131958, -17.13658905029297, 40.601158142089844, -41.505252838134766, 0.777587890625, 0.715576171875, 0.085205078125
30, 1145634721, 0.9977766275405884, 0.02891058288514614, 0.059626735746860504, -0.0071652838960289955, 11.800028800964355, -1.3462917804718018, 3.952103614807129, -10.621726989746094, 30.23305320739746, -27.42464256286621, 0.760498046875, 0.71923828125, 0.04541015625
31, 1145643054, 0.9976730942726135, 0.028730018064379692, 0.06129973754286766, -0.008120927028357983, 10.546464920043945, -0.9987911581993103, 3.5437991619110107, -2.289785861968994, 22.70627784729004, -14.13742733001709, 0.7685546875, 0.717529296875, 0.099365234375
32, 1145651387, 0.9976099729537964, 0.028867779299616814, 0.06223112717270851, -0.008314047940075397, 8.740009307861328, -0.02828027307987213, 4.12945556640625, 1.6049240827560425, 12.905259132385254, -3.104829788208008, 0.75390625, 0.713623046875, 0.060546875
33, 1145659720, 0.997582733631134, 0.029117541387677193, 0.06261388957500458, -0.007809112314134836, 7.245669364929199, 0.7886375784873962, 5.993778705596924, 2.5027544498443604, 5.66393518447876, 6.7773613929748535, 0.75927734375, 0.7119140625, 0.1103515625
34, 1145668053, 0.9975528120994568, 0.02978675812482834, 0.06290370970964432, -0.006711849011480808, 5.741611003875732, 1.0233389139175415, 6.972358226776123, 7.847447872161865, 4.646129131317139, 15.312667846679688, 0.75439453125, 0.71142578125, 0.06298828125
35, 1145676386, 0.997529149055481, 0.0310272965580225, 0.06279728561639786, -0.00547728780657053, 3.992600917816162, 1.750803828239441, 6.91083288192749, 15.509490013122559, -0.5874627828598022, 17.83879852294922, 0.76611328125, 0.715576171875, 0.105712890625
36, 1145684719, 0.9975265264511108, 0.032295845448970795, 0.062301624566316605, -0.004128496628254652, 3.2927799224853516, 2.767017364501953, 7.207962989807129, 15.906283378601074, -5.992351531982422, 19.611024856567383, 0.759765625, 0.71142578125, 0.056884765625
37, 1145693052, 0.9975411891937256, 0.033189646899700165, 0.06167533993721008, -0.0025540716014802456, 3.2528860569000244, 2.639463186264038, 7.849268436431885, 10.47603702545166, -7.5748772621154785, 22.428848266601562, 0.77880859375, 0.712646484375, 0.09716796875
38, 1145701385, 0.9975534677505493, 0.03414757549762726, 0.06099442392587662, -0.0009380297851748765, 3.7467923164367676, 2.09263014793396, 7.2300543785095215, 11.41864013671875, -8.446017265319824, 23.09574317932129, 0.774658203125, 0.71533203125, 0.0458984375
39, 1145709718, 0.9975653290748596, 0.03546823188662529, 0.06004650518298149, 0.0005320829804986715, 4.57666540145874, 2.276508092880249, 6.1607842445373535, 16.408042907714844, -11.993182182312012, 21.500974655151367, 0.793212890625, 0.717041015625, 0.08642578125
40, 1145718051, 0.9975815415382385, 0.037001337856054306, 0.058810196816921234, 0.001973820384591818, 5.659060478210449, 2.745513439178467, 5.811073303222656, 19.454578399658203, -16.146896362304688, 21.449264526367188, 0.7939453125, 0.721435546875, 0.027587890625
41, 1145726384, 0.9976146817207336, 0.03902174532413483, 0.05682440847158432, 0.003703090362250805, 7.407307147979736, 2.0606915950775146, 1.8049641847610474, 25.751432418823242, -26.090320587158203, 26.14266586303711, 0.814453125, 0.725341796875, 0.061279296875
42, 1145734717, 0.9976851940155029, 0.04286451265215874, 0.052378926426172256, 0.0066144331358373165, 17.088327407836914, 0.6664852499961853, -10.841446876525879, 49.81096649169922, -59.540489196777344, 45.12775421142578, 0.8203125, 0.727783203125, -0.0029296875
43, 1145743050, 0.9977632164955139, 0.04768306389451027, 0.04632938280701637, 0.007000161800533533, 15.047220230102539, 1.5050581693649292, -10.351235389709473, 64.72589874267578, -82.856689453125, 12.090126991271973, 0.849609375, 0.734375, 0.01318359375
44, 1145751383, 0.9980813264846802, 0.04964409023523331, 0.036595337092876434, 0.005515879951417446, 2.0054519176483154, 4.699397087097168, 28.694032669067383, 26.33831787109375, -134.79071044921875, -12.960508346557617, 0.852783203125, 0.74365234375, -0.06982421875
45, 1145759716, 0.9981523156166077, 0.05282646790146828, 0.029245741665363312, 0.006830678321421146, -10.44051456451416, -2.8618547916412354, 35.622989654541016, 41.88618850708008, -99.72412109375, 24.416967391967773, 0.882080078125, 0.759765625, -0.062744140625
46, 1145768049, 0.9979585409164429, 0.05850602686405182, 0.023280853405594826, 0.010692465119063854, -5.59540319442749, -8.286699295043945, 16.40325355529785, 75.6174087524414, -79.39105987548828, 59.44680404663086, 0.87890625, 0.7548828125, -0.142333984375
47, 1145776382, 0.9977090358734131, 0.06342313438653946, 0.017497451975941658, 0.01576441153883934, 8.00308609008789, -3.9483351707458496, 9.238481521606445, 64.705322265625, -75.4189224243164, 75.62920379638672, 0.906982421875, 0.760498046875, -0.1318359375
48, 1145784715, 0.9974511861801147, 0.06685780733823776, 0.011318552307784557, 0.022217536345124245, 9.6818265914917, -2.4652955532073975, 7.349067211151123, 44.0878791809082, -79.69513702392578, 94.61286163330078, 0.901123046875, 0.75, -0.20263671875
49, 1145793048, 0.9970779418945312, 0.0704825222492218, 0.004952983930706978, 0.02904355898499489, 3.998185157775879, 1.489235520362854, 9.969258308410645, 46.626914978027344, -81.56019592285156, 99.91421508789062, 0.92919921875, 0.74658203125, -0.194580078125
50, 1145801381, 0.996570348739624, 0.07456516474485397, -0.0014903154224157333, 0.03585684671998024, -1.9953972101211548, 7.281007766723633, 13.313262939453125, 53.06522750854492, -83.20596313476562, 99.94876861572266, 0.921630859375, 0.735595703125, -0.270751953125
51, 1145809714, 0.9958856105804443, 0.07975257188081741, -0.00749099999666214, 0.042373545467853546, -1.9352692365646362, 11.095335006713867, 9.158440589904785, 68.56477355957031, -77.54303741455078, 95.43138122558594, 0.95068359375, 0.73095703125, -0.266357421875
52, 1145818047, 0.9952030777931213, 0.08469585329294205, -0.013773830607533455, 0.046989139169454575, -2.1482162475585938, 13.519411087036133, 5.863212585449219, 64.89276123046875, -83.79912567138672, 69.79369354248047, 0.92919921875, 0.714111328125, -0.33984375
53, 1145826380, 0.9946342706680298, 0.0879640132188797, -0.020226480439305305, 0.0505584254860878, 0.20444460213184357, 11.148590087890625, 8.242547988891602, 41.44029235839844, -85.8046646118164, 55.85178756713867, 0.950927734375, 0.71240234375, -0.3349609375
54, 1145834713, 0.9940031170845032, 0.09205872565507889, -0.026428479701280594, 0.05277283489704132, -1.7188665866851807, 5.383603572845459, 12.943770408630371, 52.70564270019531, -85.03923797607422, 36.89305114746094, 0.921630859375, 0.699462890625, -0.4052734375
55, 1145843046, 0.9933637380599976, 0.09661448001861572, -0.03263724222779274, 0.05319162830710411, -0.26031607389450073, 2.88284969329834, 11.56397819519043, 58.18590545654297, -87.32247161865234, 12.139460563659668, 0.937744140625, 0.698974609375, -0.40185546875
56, 1145851379, 0.9928237795829773, 0.0986141562461853, -0.03999403491616249, 0.05456347018480301, 0.5963548421859741, -1.9116897583007812, 12.869808197021484, 22.899032592773438, -100.24381256103516, 27.814144134521484, 0.901123046875, 0.690185546875, -0.474609375
57, 1145859712, 0.9916287064552307, 0.10485422611236572, -0.04839794710278511, 0.057760994881391525, -1.2370761632919312, -5.394026756286621, 13.668185234069824, 81.71390533447266, -115.2029037475586, 52.26689529418945, 0.9150390625, 0.69287109375, -0.4755859375
58, 1145868045, 0.9899208545684814, 0.11480745673179626, -0.05744042992591858, 0.05981029197573662, 0.3278081715106964, 1.4981235265731812, 11.644067764282227, 132.00546264648438, -129.26498413085938, 35.52009582519531, 0.87548828125, 0.66748046875, -0.555419921875
59, 1145876378, 0.987978994846344, 0.12352503836154938, -0.06769175082445145, 0.0636972039937973, 3.19948148727417, 6.464393615722656, 11.122441291809082, 115.87920379638672, -141.59671020507812, 63.55097579956055, 0.884033203125, 0.657958984375, -0.56298828125
60, 1145884711, 0.9859768152236938, 0.13078641891479492, -0.07916075736284256, 0.06692352145910263, 3.0956459045410156, 5.1438798904418945, 10.809710502624512, 94.64732360839844, -158.4352569580078, 58.11476135253906, 0.836181640625, 0.63623046875, -0.638427734375
61, 1145893044, 0.9838772416114807, 0.13683739304542542, -0.0912158191204071, 0.07029382139444351, 4.23501443862915, 4.014376163482666, 10.928168296813965, 77.88871765136719, -164.7224884033203, 62.45962905883789, 0.8359375, 0.625732421875, -0.635009765625
62, 1145901377, 0.9819610714912415, 0.14162494242191315, -0.10176201909780502, 0.07307480275630951, 3.327566623687744, 4.3974809646606445, 11.913492202758789, 61.307212829589844, -144.35696411132812, 53.12179183959961, 0.772216796875, 0.607421875, -0.6953125
63, 1145909710, 0.9802860021591187, 0.14541493356227875, -0.11007817089557648, 0.07600661367177963, 3.4141979217529297, 6.063203811645508, 10.510896682739258, 49.66953659057617, -112.20210266113281, 51.902748107910156, 0.78271484375, 0.606689453125, -0.689697265625
64, 1145918043, 0.9793630838394165, 0.14638477563858032, -0.1152724102139473, 0.07830813527107239, 5.166244029998779, 6.876672744750977, 12.892748832702637, 12.605975151062012, -67.69557189941406, 40.710914611816406, 0.727783203125, 0.594482421875, -0.731201171875
65, 1145926376, 0.9788540601730347, 0.14615307748317719, -0.11839444935321808, 0.08041948825120926, 3.0063223838806152, 4.167375564575195, 10.920938491821289, -2.6398606300354004, -37.80890655517578, 35.37630081176758, 0.744384765625, 0.600830078125, -0.712890625
66, 1145934709, 0.9786521196365356, 0.14505763351917267, -0.1200941652059555, 0.08231742680072784, 5.777378559112549, 4.138791561126709, 10.85954761505127, -13.497566223144531, -18.048786163330078, 30.772785186767578, 0.7041015625, 0.59912109375, -0.744140625
67, 1145943042, 0.9785053133964539, 0.14406204223632812, -0.12128601968288422, 0.08404599130153656, 2.820484161376953, 1.9064686298370361, 10.652117729187012, -12.140978813171387, -11.155879974365234, 27.194490432739258, 0.726806640625, 0.612060546875, -0.7138671875
68, 1145951375, 0.9783880114555359, 0.1429804116487503, -0.12283182144165039, 0.08500844240188599, 2.6946988105773926, 4.362010955810547, 10.188214302062988, -14.872506141662598, -17.704214096069336, 17.756711959838867, 0.691162109375, 0.613037109375, -0.74462890625
69, 1145959708, 0.9783871173858643, 0.14044611155986786, -0.1248614564538002, 0.08627688884735107, 3.6394143104553223, 4.514557361602783, 9.834455490112305, -34.86125564575195, -21.290342330932617, 25.084627151489258, 0.710693359375, 0.627685546875, -0.711669921875
70, 1145968041, 0.978376567363739, 0.1380418837070465, -0.127079039812088, 0.08703666180372238, 2.6818628311157227, 1.7733473777770996, 9.462249755859375, -34.022830963134766, -25.40001678466797, 18.448162078857422, 0.673828125, 0.6318359375, -0.737060546875
71, 1145976374, 0.978369951248169, 0.13582032918930054, -0.12927819788455963, 0.087366484105587, 3.346360445022583, 2.4885945320129395, 9.236870765686035, -32.47849655151367, -25.751726150512695, 12.257187843322754, 0.6904296875, 0.64697265625, -0.70947265625
72, 1145984707, 0.9783755540847778, 0.13368088006973267, -0.1311638355255127, 0.08779263496398926, 3.2353904247283936, 1.4311097860336304, 9.013872146606445, -30.670757293701172, -21.858579635620117, 12.854841232299805, 0.658203125, 0.648681640625, -0.737548828125
73, 1145993040, 0.9783230423927307, 0.13240092992782593, -0.1328752189874649, 0.08774268627166748, 3.185454845428467, 1.451464295387268, 9.017989158630371, -19.822795867919922, -21.104122161865234, 4.604738712310791, 0.6748046875, 0.666259765625, -0.71044921875
74, 1146001373, 0.9782811999320984, 0.13128091394901276, -0.13431952893733978, 0.08769233524799347, 3.005347728729248, 2.04064679145813, 8.931340217590332, -17.195768356323242, -18.112682342529297, 3.8514480590820312, 0.6396484375, 0.66552734375, -0.74169921875
75, 1146009706, 0.9782755970954895, 0.13034243881702423, -0.13536106050014496, 0.08755367249250412, 2.5374317169189453, 1.7569962739944458, 8.881749153137207, -14.66166877746582, -12.57482624053955, 1.513609766960144, 0.65185546875, 0.677978515625, -0.711181640625
76, 1146018039, 0.9782768487930298, 0.1297057718038559, -0.13614264130592346, 0.08727315068244934, 3.204475164413452, 2.150516986846924, 9.1204252243042, -10.39881706237793, -10.114601135253906, -1.3868573904037476, 0.619873046875, 0.676513671875, -0.7421875
77, 1146026372, 0.9783266186714172, 0.1291051059961319, -0.13660204410552979, 0.08688721805810928, 2.714049816131592, 2.286351442337036, 9.771398544311523, -9.973185539245605, -5.491179943084717, -3.5489299297332764, 0.636474609375, 0.68994140625, -0.72119140625
78, 1146034705, 0.9783610701560974, 0.12859375774860382, -0.13705722987651825, 0.08654006570577621, 3.314067840576172, 2.680043935775757, 9.510974884033203, -8.505949974060059, -5.930643558502197, -3.1400749683380127, 0.602783203125, 0.6875, -0.752685546875
79, 1146043038, 0.9784350395202637, 0.12804289162158966, -0.13729128241539001, 0.08614849299192429, 3.1416733264923096, 1.9340740442276, 9.34862232208252, -9.087932586669922, -2.4835052490234375, -4.140106201171875, 0.617919921875, 0.695556640625, -0.733154296875
80, 1146051371, 0.9785029888153076, 0.12775202095508575, -0.137360081076622, 0.08569815009832382, 2.956080675125122, 2.355485200881958, 9.069903373718262, -5.3340373039245605, -1.1115812063217163, -5.6674065589904785, 0.5810546875, 0.69384765625, -0.762939453125
81, 1146059704, 0.9785540103912354, 0.12741883099079132, -0.1374882608652115, 0.08540474623441696, 2.5626981258392334, 2.238790512084961, 8.526402473449707, -5.807797431945801, -1.1888847351074219, -3.394834041595459, 0.59765625, 0.702880859375, -0.745361328125
82, 1146068037, 0.9785886406898499, 0.12724465131759644, -0.13758070766925812, 0.08511824160814285, 2.8440957069396973, 1.7572004795074463, 8.406806945800781, -3.4232399463653564, -1.3424676656723022, -3.6025137901306152, 0.56689453125, 0.700439453125, -0.7734375
83, 1146076370, 0.97861647605896, 0.12721531093120575, -0.13764022290706635, 0.08474740386009216, 3.1768431663513184, 2.3975303173065186, 8.649415969848633, -1.7454309463500977, -0.8035697340965271, -5.098514080047607, 0.580322265625, 0.706787109375, -0.7587890625
84, 1146084703, 0.9786890745162964, 0.1269625872373581, -0.13756585121154785, 0.08440737426280975, 2.5952413082122803, 2.4064457416534424, 9.028448104858398, -4.4539055824279785, 0.9717143774032593, -4.5101799964904785, 0.548828125, 0.69873046875, -0.790771484375
85, 1146093036, 0.9787412881851196, 0.12682315707206726, -0.13753095269203186, 0.08406820893287659, 3.170027494430542, 2.1850509643554688, 9.217926025390625, -3.0976829528808594, 0.6989485025405884, -4.660356521606445, 0.56396484375, 0.709228515625, -0.77294921875
86, 1146101369, 0.9788463711738586, 0.12661035358905792, -0.13723070919513702, 0.08365403860807419, 3.3606107234954834, 2.184375047683716, 9.533684730529785, -3.8524842262268066, 3.897526741027832, -6.014325141906738, 0.53564453125, 0.69970703125, -0.806884765625
87, 1146109702, 0.9789603352546692, 0.12641571462154388, -0.1368137001991272, 0.0832989439368248, 2.8514511585235596, 2.2956957817077637, 9.361255645751953, -3.538785696029663, 5.990670204162598, -5.505703449249268, 0.544189453125, 0.702880859375, -0.78759765625
88, 1146118035, 0.9790812134742737, 0.12624505162239075, -0.13630416989326477, 0.08297158777713776, 3.1671085357666016, 2.149796962738037, 8.970417976379395, -3.0692262649536133, 7.270665645599365, -5.346947193145752, 0.515869140625, 0.69580078125, -0.827392578125
89, 1146126368, 0.9792385101318359, 0.12590020895004272, -0.13573409616947174, 0.08257235586643219, 2.242994546890259, 2.526047706604004, 9.135176658630371, -5.384112358093262, 7.804311752319336, -6.094779014587402, 0.521728515625, 0.697509765625, -0.81640625
90, 1146134701, 0.9793851375579834, 0.12540015578269958, -0.13534794747829437, 0.08222723007202148, 2.441507577896118, 2.3193280696868896, 8.93351936340332, -7.560938358306885, 5.578307151794434, -4.746625900268555, 0.4892578125, 0.689453125, -0.85400390625
91, 1146143034, 0.979518473148346, 0.12488789856433868, -0.13511571288108826, 0.08179938793182373, 2.540494203567505, 2.1882402896881104, 8.831717491149902, -8.193406105041504, 3.7705819606781006, -5.597043991088867, 0.493896484375, 0.691650390625, -0.851318359375
92, 1146151367, 0.9796273708343506, 0.12437397241592407, -0.13504795730113983, 0.08138945698738098, 2.980548858642578, 2.381256103515625, 8.765071868896484, -8.163795471191406, 1.1233253479003906, -5.003434181213379, 0.45556640625, 0.681396484375, -0.8916015625
93, 1146159700, 0.9797540903091431, 0.12372619658708572, -0.1349978744983673, 0.08093307912349701, 3.0913748741149902, 2.5206146240234375, 8.58210563659668, -10.26675033569336, 1.4046207666397095, -5.405167579650879, 0.45263671875, 0.681396484375, -0.8828125
94, 1146168033, 0.9799065589904785, 0.12301367521286011, -0.1349724531173706, 0.08021365851163864, 1.9646142721176147, 3.1381113529205322, 9.012117385864258, -11.535140037536621, 0.32843852043151855, -8.781636238098145, 0.408203125, 0.668701171875, -0.924560546875
95, 1146176366, 0.9800540208816528, 0.1221582442522049, -0.1353994756937027, 0.07898946851491928, 1.4494783878326416, 2.956437587738037, 9.770350456237793, -15.054336547851562, -6.058511257171631, -14.580012321472168, 0.390869140625, 0.667236328125, -0.918212890625
96, 1146184699, 0.9802111983299255, 0.12111596018075943, -0.1358918845653534, 0.07778963446617126, 3.742438793182373, -0.37032151222229004, 9.234301567077637, -17.449581146240234, -7.092073440551758, -13.770785331726074, 0.333984375, 0.65283203125, -0.94970703125
97, 1146193032, 0.9803505539894104, 0.12071926891803741, -0.13612094521522522, 0.07623609900474548, 2.4910614490509033, 3.5090043544769287, 9.524251937866211, -9.269207000732422, -4.452832221984863, -20.192556381225586, 0.307861328125, 0.6533203125, -0.931640625
98, 1146201365, 0.9804971814155579, 0.11977987736463547, -0.13661247491836548, 0.0749414712190628, 3.2347919940948486, 1.7409858703613281, 9.263025283813477, -16.21527671813965, -7.381821155548096, -15.231178283691406, 0.246826171875, 0.635009765625, -0.958984375
99, 1146209698, 0.9805919528007507, 0.11941222846508026, -0.13705338537693024, 0.0734674483537674, 2.5383834838867188, 1.4697986841201782, 9.017624855041504, -8.875694274902344, -7.279773712158203, -18.78238868713379, 0.21923828125, 0.634765625, -0.92041015625
100, 1146218031, 0.9806705117225647, 0.11886537075042725, -0.13760511577129364, 0.07226385921239853, 2.5577218532562256, 2.6478729248046875, 8.700691223144531, -10.697763442993164, -8.581207275390625, -14.570765495300293, 0.157470703125, 0.61572265625, -0.929931640625
101, 1146226364, 0.9807145595550537, 0.11847933381795883, -0.1381702572107315, 0.07121366262435913, 3.390275478363037, 2.0911107063293457, 8.642044067382812, -8.364561080932617, -8.336077690124512, -12.780200004577637, 0.13720703125, 0.61181640625, -0.885986328125
102, 1146234697, 0.9807810187339783, 0.11796478927135468, -0.13859447836875916, 0.07032321393489838, 2.4725708961486816, 2.084338426589966, 9.077800750732422, -9.524246215820312, -6.408196449279785, -10.60275936126709, 0.08349609375, 0.60107421875, -0.887939453125
103, 1146243030, 0.9807842373847961, 0.11764435470104218, -0.13915738463401794, 0.06970211863517761, 2.329007625579834, 1.800171971321106, 9.097180366516113, -6.594666957855225, -7.74940824508667, -7.085793495178223, 0.076416015625, 0.5947265625, -0.83740234375
104, 1146251363, 0.9807828068733215, 0.11737728863954544, -0.13964657485485077, 0.06919179856777191, 2.8433990478515625, 2.294992208480835, 9.442583084106445, -5.4142608642578125, -7.035488128662109, -5.776241302490234, 0.032958984375, 0.57958984375, -0.837158203125
105, 1146259696, 0.9807431101799011, 0.11724124848842621, -0.1402057409286499, 0.06885278224945068, 3.757918357849121, 2.292551279067993, 9.325700759887695, -3.4934744834899902, -7.506688117980957, -3.595266103744507, 0.039306640625, 0.577880859375, -0.781494140625
106, 1146268029, 0.9807860255241394, 0.1167682483792305, -0.14046119153499603, 0.0685250386595726, 2.9121999740600586, 2.2355287075042725, 9.319172859191895, -7.690749645233154, -3.309614896774292, -3.335050106048584, 0.006103515625, 0.565673828125, -0.7861328125
107, 1146276362, 0.9807417988777161, 0.11673960834741592, -0.14085553586483002, 0.06839727610349655, 2.938175916671753, 1.9211326837539673, 9.055493354797363, -1.4732540845870972, -5.052407741546631, -1.2163432836532593, 0.0283203125, 0.564453125, -0.740478515625
108, 1146284695, 0.9807690978050232, 0.11650991439819336, -0.1409730464220047, 0.06815443187952042, 3.295053243637085, 2.3015899658203125, 9.025588035583496, -4.09049129486084, -1.5722272396087646, -2.864260673522949, 0.00634765625, 0.5458984375, -0.748291015625
109, 1146293028, 0.9807748198509216, 0.1163429468870163, -0.14113914966583252, 0.06801196932792664, 2.3741354942321777, 1.7108089923858643, 9.131915092468262, -3.2327210903167725, -1.771710991859436, -1.5580626726150513, 0.025390625, 0.5439453125, -0.706787109375
110, 1146301361, 0.980722963809967, 0.11650767922401428, -0.14138059318065643, 0.06797730922698975, 4.06627893447876, 1.936613917350769, 8.611844062805176, 1.6426280736923218, -3.4332549571990967, -0.5502193570137024, 0.004150390625, 0.52392578125, -0.7275390625
111, 1146309694, 0.9807569980621338, 0.11640482395887375, -0.14126667380332947, 0.06789914518594742, 3.560089349746704, 2.2107741832733154, 8.92351245880127, -2.0233964920043945, 2.1003544330596924, -1.2901376485824585, 0.03125, 0.5234375, -0.6953125
112, 1146318027, 0.9807561635971069, 0.11637549847364426, -0.14121854305267334, 0.06806133687496185, 2.384275197982788, 1.9696859121322632, 9.002374649047852, -0.40385961532592773, 1.069765567779541, 1.9710278511047363, 0.00439453125, 0.50390625, -0.712158203125
113, 1146326360, 0.9807332158088684, 0.11644258350133896, -0.14118029177188873, 0.0683567151427269, 3.54984450340271, 2.0688483715057373, 8.775275230407715, 1.0144388675689697, 1.4129194021224976, 3.5921270847320557, 0.034423828125, 0.49560546875, -0.6875
114, 1146334693, 0.9807446599006653, 0.11634837090969086, -0.14097854495048523, 0.06876815110445023, 2.8188283443450928, 2.0566928386688232, 9.268892288208008, -0.6701964139938354, 3.624760150909424, 5.201290130615234, 0.00146484375, 0.473388671875, -0.703369140625
115, 1146343026, 0.9807125329971313, 0.11634576320648193, -0.1409045159816742, 0.0693778395652771, 2.589334011077881, 2.248753309249878, 9.143969535827637, 0.733399510383606, 2.4472477436065674, 7.91737174987793, 0.0283203125, 0.46728515625, -0.68505859375
116, 1146351359, 0.9806730151176453, 0.11634831130504608, -0.1408040076494217, 0.07013207674026489, 3.184464931488037, 2.190863609313965, 9.148758888244629, 1.2847715616226196, 2.6170191764831543, 9.846970558166504, -0.0078125, 0.439697265625, -0.711181640625
117, 1146359692, 0.9806195497512817, 0.11635653674602509, -0.1407102346420288, 0.07104912400245667, 3.2904419898986816, 1.6255167722702026, 9.485394477844238, 1.529183030128479, 3.149360418319702, 12.032865524291992, 0.0166015625, 0.432861328125, -0.693359375
118, 1146368025, 0.9805784821510315, 0.1162274181842804, -0.1405770480632782, 0.07208254933357239, 2.9349863529205322, 2.421931266784668, 9.09858512878418, 0.08523137122392654, 3.631394386291504, 13.815154075622559, -0.029541015625, 0.406005859375, -0.717041015625
119, 1146376358, 0.9804961681365967, 0.11623039841651917, -0.1405465006828308, 0.07324881851673126, 3.0495102405548096, 1.7974971532821655, 8.670890808105469, 1.926229476928711, 2.6441712379455566, 15.531464576721191, -0.006591796875, 0.39697265625, -0.6953125
120, 1146384691, 0.98042231798172, 0.11623837798833847, -0.1404494047164917, 0.0744018703699112, 3.1674585342407227, 1.8217613697052002, 8.770434379577637, 2.1823718547821045, 3.1356310844421387, 15.252524375915527, -0.0595703125, 0.37158203125, -0.710205078125
121, 1146393024, 0.9803280830383301, 0.11632637679576874, -0.14042501151561737, 0.07554394006729126, 2.959442138671875, 1.885353684425354, 8.462087631225586, 3.0387580394744873, 2.4124131202697754, 15.059417724609375, -0.045166015625, 0.36328125, -0.68798828125
122, 1146401357, 0.9801971316337585, 0.11653692275285721, -0.14055263996124268, 0.0766730085015297, 2.446425676345825, 1.5394001007080078, 7.180934429168701, 4.727095603942871, -0.2519928812980652, 14.956706047058105, -0.0986328125, 0.33984375, -0.691650390625
123, 1146409690, 0.98007732629776, 0.11665696650743484, -0.1405932903289795, 0.07793617248535156, 2.5614821910858154, -0.5605263113975525, 8.498337745666504, 3.6824445724487305, 1.6501847505569458, 16.762048721313477, -0.084716796875, 0.330322265625, -0.671630859375
124, 1146418023, 0.9798569679260254, 0.11738193780183792, -0.14081519842147827, 0.07920703291893005, 1.2454345226287842, 2.246399164199829, 11.70536994934082, 11.974595069885254, -2.021296739578247, 16.120746612548828, -0.136474609375, 0.305908203125, -0.6640625
125, 1146426356, 0.9795951843261719, 0.1180943101644516, -0.1412554830312729, 0.08059031516313553, 5.436980247497559, 2.9836456775665283, 11.039852142333984, 11.707413673400879, -4.453036785125732, 18.02391242980957, -0.121826171875, 0.29638671875, -0.631591796875
126, 1146434689, 0.9794842600822449, 0.11837825924158096, -0.14118599891662598, 0.08163679391145706, 4.066457748413086, 1.8014538288116455, 8.423406600952148, 5.7456955909729, 2.2402596473693848, 13.358939170837402, -0.1669921875, 0.27587890625, -0.622314453125
127, 1146443022, 0.9793543219566345, 0.1187010183930397, -0.14138241112232208, 0.08238590508699417, 0.8944426774978638, 2.813161611557007, 10.257275581359863, 5.282257556915283, -1.5148003101348877, 9.69981575012207, -0.146484375, 0.265869140625, -0.582275390625
128, 1146451355, 0.9791465401649475, 0.11904972046613693, -0.1421958953142166, 0.0829506665468216, 3.0723419189453125, 2.898651599884033, 11.261191368103027, 4.842358589172363, -10.69865608215332, 8.293902397155762, -0.17919921875, 0.250244140625, -0.571044921875
129, 1146459688, 0.9789726734161377, 0.11904920637607574, -0.14320503175258636, 0.08326375484466553, 4.28764533996582, 1.0937721729278564, 8.947261810302734, -0.7737550139427185, -12.893747329711914, 5.836678504943848, -0.16064453125, 0.244384765625, -0.537109375
130, 1146468021, 0.9788415431976318, 0.11871357262134552, -0.1443881392478943, 0.083241306245327, 1.8505185842514038, 1.6008589267730713, 8.596969604492188, -6.071702003479004, -15.704346656799316, 2.2484049797058105, -0.18212890625, 0.2265625, -0.52294921875
131, 1146476354, 0.97853022813797, 0.11850901693105698, -0.1469145119190216, 0.08277185261249542, -0.8917744755744934, 2.6769328117370605, 10.502923965454102, -6.579151153564453, -34.634376525878906, -1.6605981588363647, -0.160888671875, 0.216552734375, -0.49169921875
132, 1146484687, 0.9777467250823975, 0.11876890808343887, -0.1526634246110916, 0.08123983442783356, -0.21096372604370117, 2.108534812927246, 10.713846206665039, -5.232763290405273, -81.59989166259766, -11.0771484375, -0.183837890625, 0.201416015625, -0.474365234375
133, 1146493020, 0.9760634899139404, 0.12089678645133972, -0.16328775882720947, 0.07760259509086609, 7.212250232696533, 0.6962234377861023, 6.749500751495361, 11.344321250915527, -154.20509338378906, -34.357643127441406, -0.173583984375, 0.194580078125, -0.44287109375
134, 1146501353, 0.9715917110443115, 0.12425463646650314, -0.18773716688156128, 0.07298055291175842, -18.101316452026367, -0.38540124893188477, 21.366607666015625, 15.667041778564453, -349.3810119628906, -24.35918617248535, -0.21044921875, 0.17578125, -0.423095703125
135, 1146509686, 0.9613811373710632, 0.14016717672348022, -0.22546812891960144, 0.07255638390779495, -5.460701942443848, -3.9461610317230225, 14.47920036315918, 190.63990783691406, -546.8358764648438, 27.76190185546875, -0.232666015625, 0.158203125, -0.3837890625
136, 1146518019, 0.9469830989837646, 0.15634772181510925, -0.27135220170021057, 0.07174308598041534, -6.412519931793213, 7.958077430725098, 15.154175758361816, 193.07635498046875, -669.1157836914062, 41.708831787109375, -0.299072265625, 0.127197265625, -0.3544921875
137, 1146526352, 0.9273832440376282, 0.16975000500679016, -0.32596078515052795, 0.06996876746416092, -8.473803520202637, 5.561585426330566, 18.231443405151367, 155.80734252929688, -801.4307861328125, 63.4676628112793, -0.34228515625, 0.11181640625, -0.302001953125
138, 1146534685, 0.9012938141822815, 0.1759539693593979, -0.39084500074386597, 0.06285616010427475, -8.683528900146484, 8.357765197753906, 21.38149070739746, 45.37696838378906, -967.6506958007812, 57.89826965332031, -0.4248046875, 0.1025390625, -0.232421875
139, 1146543018, 0.8691386580467224, 0.16654464602470398, -0.46324628591537476, 0.047588128596544266, -5.701699733734131, 14.519853591918945, 22.841777801513672, -184.10691833496094, -1099.964599609375, 64.26360321044922, -0.478515625, 0.115234375, -0.137939453125
140, 1146551351, 0.8375244140625, 0.14443129301071167, -0.5261741876602173, 0.028884820640087128, 11.207275390625, 12.621726989746094, 32.69453048706055, -352.92974853515625, -982.6864013671875, 82.01780700683594, -0.55517578125, 0.137939453125, -0.010009765625
141, 1146559684, 0.8307075500488281, 0.13849514722824097, -0.539020836353302, 0.014199372380971909, 35.138607025146484, -11.445942878723145, 49.02162170410156, -166.6103973388672, -224.05747985839844, -97.99732208251953, -0.57470703125, 0.160888671875, 0.05126953125
142, 1146568017, 0.8246691823005676, 0.1429336965084076, -0.5471659898757935, 0.010063139721751213, -13.916648864746094, -26.6602783203125, 17.270469665527344, 29.58626937866211, -146.41783142089844, -63.65684509277344, -0.611328125, 0.152099609375, 0.0556640625
143, 1146576350, 0.8165233135223389, 0.14934757351875305, -0.5575567483901978, 0.010773992165923119, 10.251913070678711, -2.345022678375244, 26.699172973632812, 92.32804870605469, -178.7908935546875, -18.728775024414062, -0.613525390625, 0.158447265625, 0.05322265625
144, 1146584683, 0.8149942755699158, 0.14777816832065582, -0.5601933002471924, 0.011402086354792118, 2.8305556774139404, -0.5646569728851318, 23.98176383972168, -10.425322532653809, -39.671199798583984, 24.52894401550293, -0.648681640625, 0.1650390625, 0.049560546875
145, 1146593016, 0.8144987225532532, 0.14541637897491455, -0.5614790916442871, 0.013720426708459854, 0.2418310046195984, -12.702715873718262, 15.624869346618652, -8.070320129394531, -13.486409187316895, 46.67816162109375, -0.64111328125, 0.18603515625, 0.0224609375
146, 1146601349, 0.8143911957740784, 0.14512139558792114, -0.5615895390510559, 0.018026180565357208, 0.17620550096035004, -6.012812614440918, 13.073040008544922, 29.76735496520996, 6.731583118438721, 50.54978561401367, -0.67041015625, 0.203125, 0.00244140625
147, 1146609682, 0.8156099915504456, 0.14283806085586548, -0.560259997844696, 0.022078096866607666, -0.1063033863902092, 1.7612284421920776, 10.52405071258545, 3.3929905891418457, 32.46995544433594, 59.812904357910156, -0.656005859375, 0.232666015625, -0.033203125
148, 1146618015, 0.8185272812843323, 0.1389688104391098, -0.5568124055862427, 0.02572348341345787, -0.4560598134994507, 2.0652177333831787, 7.685908794403076, -20.364503860473633, 69.61283874511719, 62.84251022338867, -0.6796875, 0.254638671875, -0.064208984375
149, 1146626348, 0.8225353956222534, 0.1356956511735916, -0.55152827501297, 0.028975501656532288, -1.5944604873657227, 2.7731926441192627, 7.662216663360596, -17.94765281677246, 96.96481323242188, 49.892669677734375, -0.6513671875, 0.288818359375, -0.108642578125
150, 1146634681, 0.8271989822387695, 0.1329592913389206, -0.5450369119644165, 0.03161107748746872, -1.9491474628448486, 5.982851028442383, 9.336634635925293, -17.448135375976562, 114.93991088867188, 36.39632034301758, -0.669921875, 0.309814453125, -0.141357421875
151, 1146643014, 0.8328976035118103, 0.13065989315509796, -0.5367419719696045, 0.03344341367483139, -1.2535688877105713, 7.44670295715332, 10.896522521972656, -19.45131492614746, 140.7860107421875, 20.19717788696289, -0.626953125, 0.343994140625, -0.1904296875
152, 1146651347, 0.8391053676605225, 0.12925802171230316, -0.5272597670555115, 0.034532319754362106, -1.9748615026474, 6.773423194885254, 11.37490463256836, -15.181378364562988, 157.16403198242188, 2.7294230461120605, -0.6484375, 0.365234375, -0.22900390625
153, 1146659680, 0.8456680774688721, 0.12888167798519135, -0.5167421698570251, 0.03483252227306366, -0.9114881753921509, 6.23350715637207, 10.569587707519531, -9.057962417602539, 168.95077514648438, -15.798212051391602, -0.597412109375, 0.396728515625, -0.2724609375
154, 1146668013, 0.8525441288948059, 0.1290535181760788, -0.5053043961524963, 0.03437872231006622, -0.00787055492401123, 5.564376354217529, 9.584514617919922, -8.304177284240723, 181.1277313232422, -30.2623291015625, -0.6123046875, 0.419677734375, -0.31689453125
155, 1146676346, 0.8598123788833618, 0.1293814480304718, -0.4928377866744995, 0.03309136629104614, 1.2353216409683228, 5.173978805541992, 9.520951271057129, -12.33263111114502, 193.43350219726562, -43.06022644042969, -0.566650390625, 0.451904296875, -0.35498046875
156, 1146684679, 0.8674403429031372, 0.12946927547454834, -0.4793877899646759, 0.031194716691970825, 2.231494188308716, 4.381005764007568, 9.862168312072754, -19.636178970336914, 207.4550018310547, -50.6209716796875, -0.587158203125, 0.4697265625, -0.398681640625
157, 1146693012, 0.8752340078353882, 0.12949322164058685, -0.46516281366348267, 0.028664227575063705, 2.287621259689331, 3.9800541400909424, 10.16335391998291, -24.396236419677734, 215.7037353515625, -59.10189437866211, -0.53515625, 0.497802734375, -0.447265625
158, 1146701345, 0.8829511404037476, 0.12915508449077606, -0.45063796639442444, 0.0253545343875885, 3.1898720264434814, 4.198394775390625, 10.580669403076172, -33.62740707397461, 218.5665283203125, -66.78031921386719, -0.547607421875, 0.518798828125, -0.51171875
159, 1146709678, 0.8908734917640686, 0.1274559646844864, -0.4354616105556488, 0.02175770327448845, 4.9722747802734375, 2.7445132732391357, 10.397019386291504, -51.91766357421875, 226.67477416992188, -62.92701721191406, -0.484130859375, 0.554931640625, -0.561279296875
160, 1146718011, 0.898863673210144, 0.12509477138519287, -0.4196074604988098, 0.01804949715733528, 5.683919429779053, 0.9080625176429749, 8.672006607055664, -60.766178131103516, 236.4290008544922, -61.66718292236328, -0.465576171875, 0.57958984375, -0.6337890625
161, 1146726344, 0.9066917300224304, 0.12194798141717911, -0.4035135507583618, 0.014714053831994534, 6.301300525665283, 0.13938872516155243, 7.651545524597168, -67.83002471923828, 238.20669555664062, -52.76482009887695, -0.3681640625, 0.61767578125, -0.66943359375
162, 1146734677, 0.9141537547111511, 0.11823604255914688, -0.3875585198402405, 0.011931754648685455, 6.877500057220459, 0.0420512817800045, 8.435210227966309, -71.37972259521484, 236.57310485839844, -42.55810546875, -0.3203125, 0.648681640625, -0.71630859375
163, 1146743010, 0.921286940574646, 0.11428318917751312, -0.37157440185546875, 0.01014567632228136, 7.293422222137451, -0.05499352514743805, 8.550418853759766, -68.3805923461914, 235.74334716796875, -28.62083625793457, -0.210205078125, 0.686279296875, -0.718505859375
164, 1146751343, 0.9280823469161987, 0.11073694378137589, -0.3554055392742157, 0.009391608648002148, 7.64037561416626, -0.5720498561859131, 8.252073287963867, -57.575584411621094, 239.02444458007812, -17.991121292114258, -0.156494140625, 0.71044921875, -0.73876953125
165, 1146759676, 0.9346226453781128, 0.10777392983436584, -0.33879318833351135, 0.009244629181921482, 8.00144100189209, 0.3647632896900177, 8.34827995300293, -46.53551483154297, 243.17669677734375, -13.635452270507812, -0.050537109375, 0.738525390625, -0.7197265625
166, 1146768009, 0.9409160017967224, 0.10462001711130142, -0.32192546129226685, 0.009826593101024628, 8.443901062011719, 0.8895485401153564, 9.183390617370605, -45.37860870361328, 247.52439880371094, -3.823240280151367, -0.009033203125, 0.750244140625, -0.73095703125
167, 1146776342, 0.9470638632774353, 0.10141254216432571, -0.30440405011177063, 0.011167586781084538, 8.891003608703613, 0.2786194086074829, 9.584028244018555, -42.216007232666016, 255.33905029296875, 5.407317638397217, 0.0908203125, 0.76611328125, -0.70556640625
168, 1146784675, 0.9529911279678345, 0.09850223362445831, -0.28624582290649414, 0.01302381046116352, 8.832429885864258, 0.02657688967883587, 9.954117774963379, -35.979888916015625, 264.4827575683594, 9.926280975341797, 0.13037109375, 0.769287109375, -0.71923828125
169, 1146793008, 0.9586442112922668, 0.09569260478019714, -0.2676021158695221, 0.015306210145354271, 9.214675903320312, 0.5163521766662598, 10.713595390319824, -32.32701110839844, 269.2372131347656, 14.594417572021484, 0.233642578125, 0.776123046875, -0.6865234375
170, 1146801341, 0.9640207290649414, 0.09265724569559097, -0.248506560921669, 0.017997508868575096, 9.74552059173584, 0.8777444958686829, 11.043024063110352, -33.53788375854492, 275.8517761230469, 20.192890167236328, 0.2724609375, 0.768798828125, -0.69677734375
171, 1146809674, 0.9690885543823242, 0.08953243494033813, -0.2289377897977829, 0.020964063704013824, 10.008764266967773, 0.8704161047935486, 11.580098152160645, -33.069984436035156, 280.3736877441406, 23.70461654663086, 0.371826171875, 0.770263671875, -0.660400390625
172, 1146818007, 0.9737631678581238, 0.08659796416759491, -0.20904763042926788, 0.024206722155213356, 10.0938138961792, 1.1782172918319702, 11.595841407775879, -29.289703369140625, 284.77545166015625, 26.419355392456055, 0.4169921875, 0.76416015625, -0.6640625
173, 1146826340, 0.9779946208000183, 0.08379647135734558, -0.18906573951244354, 0.0275611262768507, 9.783775329589844, 1.9549885988235474, 11.119560241699219, -26.4371337890625, 283.77508544921875, 27.643970489501953, 0.52001953125, 0.759765625, -0.61474609375
174, 1146834673, 0.9817577600479126, 0.08099570125341415, -0.16925370693206787, 0.030749551951885223, 10.05179500579834, 2.8567757606506348, 10.998700141906738, -26.57672882080078, 281.12353515625, 25.71107292175293, 0.5625, 0.75, -0.60693359375
175, 1146843006, 0.9850897789001465, 0.07794354856014252, -0.14962579309940338, 0.0337010994553566, 9.43685531616211, 3.140883207321167, 10.87531852722168, -29.93694496154785, 276.4712829589844, 23.55739974975586, 0.669189453125, 0.750244140625, -0.541259765625
176, 1146851339, 0.9879337549209595, 0.07475769519805908, -0.13071514666080475, 0.03622526302933693, 9.736124992370605, 3.7867794036865234, 11.977656364440918, -32.618507385253906, 266.3587646484375, 18.96495246887207, 0.697998046875, 0.739501953125, -0.514404296875
177, 1146859672, 0.9904292225837708, 0.07132450491189957, -0.11182743310928345, 0.038184989243745804, 10.118485450744629, 4.721757411956787, 13.896822929382324, -36.485260009765625, 264.00494384765625, 12.014636993408203, 0.779052734375, 0.734619140625, -0.421630859375
178, 1146868005, 0.9925350546836853, 0.06797178089618683, -0.09322825819253922, 0.03953798860311508, 9.564037322998047, 5.1751275062561035, 14.90778636932373, -36.25322723388672, 259.7950744628906, 4.039186954498291, 0.7919921875, 0.730712890625, -0.382080078125
179, 1146876338, 0.994257926940918, 0.06480125337839127, -0.07507539540529251, 0.0402071550488472, 9.5831937789917, 5.642787456512451, 14.828879356384277, -34.392852783203125, 251.5695343017578, -4.830145835876465, 0.850830078125, 0.72509765625, -0.273681640625
180, 1146884671, 0.9956375956535339, 0.061548929661512375, -0.057498104870319366, 0.040157292038202286, 9.809301376342773, 6.029637336730957, 14.998198509216309, -36.40047073364258, 243.65235900878906, -13.948263168334961, 0.839599609375, 0.714111328125, -0.2431640625
181, 1146893004, 0.9967178702354431, 0.05817136913537979, -0.04005800560116768, 0.039572060108184814, 9.996418952941895, 5.857080936431885, 15.546209335327148, -38.25499725341797, 240.30638122558594, -20.824392318725586, 0.868896484375, 0.710205078125, -0.133056640625
182, 1146901337, 0.9974845051765442, 0.05520021542906761, -0.022759132087230682, 0.03821863979101181, 10.25837516784668, 6.906506538391113, 14.680644035339355, -33.040748596191406, 238.2081756591797, -31.366947174072266, 0.843017578125, 0.699462890625, -0.11572265625
183, 1146909670, 0.9979602694511414, 0.05249464139342308, -0.005682756658643484, 0.03589126840233803, 10.591156005859375, 9.019831657409668, 12.244744300842285, -29.522485733032227, 233.41018676757812, -44.417198181152344, 0.848388671875, 0.69091796875, -0.010009765625
184, 1146918003, 0.9981915950775146, 0.04971855878829956, 0.010605978779494762, 0.032092370092868805, 10.185713768005371, 10.637735366821289, 9.418251037597656, -30.892934799194336, 222.328369140625, -63.99015808105469, 0.809326171875, 0.687255859375, -0.003662109375
185, 1146926336, 0.9982447624206543, 0.046480998396873474, 0.025507979094982147, 0.02640853263437748, 11.29373550415039, 11.569136619567871, 8.896369934082031, -37.41261672973633, 201.54037475585938, -88.84487915039062, 0.79931640625, 0.6806640625, 0.094482421875
186, 1146934669, 0.9981486201286316, 0.042354993522167206, 0.03898407891392708, 0.019666334614157677, 12.990476608276367, 10.258809089660645, 8.804178237915039, -49.69036102294922, 182.35633850097656, -102.78023529052734, 0.753173828125, 0.6767578125, 0.08544921875
187, 1146943002, 0.9978476166725159, 0.038249701261520386, 0.05187833681702614, 0.012106459587812424, 14.862339973449707, 7.2149834632873535, 5.765377044677734, -49.04494857788086, 173.39553833007812, -113.55582427978516, 0.7412109375, 0.676513671875, 0.1826171875
188, 1146951335, 0.9974036812782288, 0.03467825800180435, 0.06303156912326813, 0.0033587932121008635, 15.430286407470703, 5.5780839920043945, 2.1557767391204834, -41.04609680175781, 149.49359130859375, -128.5763397216797, 0.70458984375, 0.683349609375, 0.1591796875
189, 1146959668, 0.9969155788421631, 0.03082422912120819, 0.07193750888109207, -0.005927738267928362, 18.451452255249023, 4.80944299697876, 0.33089226484298706, -44.62786865234375, 117.97813415527344, -135.11822509765625, 0.679931640625, 0.678466796875, 0.24951171875
190, 1146968001, 0.9964570999145508, 0.026055609807372093, 0.07864437997341156, -0.014504050835967064, 21.654335021972656, 2.536851406097412, -0.7563995718955994, -57.61233139038086, 88.51091766357422, -125.37153625488281, 0.638916015625, 0.688720703125, 0.211669921875
191, 1146976334, 0.9960882663726807, 0.021362578496336937, 0.08311348408460617, -0.021086107939481735, 24.716405868530273, -1.5305864810943604, -2.9657561779022217, -58.43927001953125, 58.1323127746582, -97.14116668701172, 0.616943359375, 0.679931640625, 0.298583984375
192, 1146984667, 0.9958651661872864, 0.018369248136878014, 0.08530031889677048, -0.025291157886385918, 25.016254425048828, -5.221077919006348, -5.234170436859131, -37.13384246826172, 28.23975372314453, -61.92683792114258, 0.589111328125, 0.686767578125, 0.25146484375
193, 1146993000, 0.9958169460296631, 0.017597896978259087, 0.08530399203300476, -0.027623049914836884, 24.566579818725586, -5.316109657287598, -3.8320674896240234, -8.30921459197998, -0.7772903442382812, -33.067039489746094, 0.5849609375, 0.6796875, 0.320068359375
194, 1147001333, 0.9959501028060913, 0.018110280856490135, 0.08366013318300247, -0.02752074785530567, 22.096914291381836, -3.676717519760132, -1.8797869682312012, 7.119773864746094, -22.313159942626953, 2.2523505687713623, 0.582275390625, 0.6904296875, 0.26220703125
195, 1147009666, 0.9962342977523804, 0.019212355837225914, 0.08061150461435318, -0.025509687140583992, 19.07514762878418, -1.766295313835144, 0.40934836864471436, 13.411529541015625, -40.99488830566406, 29.46938705444336, 0.595703125, 0.687255859375, 0.314453125
196, 1147017999, 0.9966194033622742, 0.02082393504679203, 0.0763683170080185, -0.022018956020474434, 15.899470329284668, -0.08937318623065948, 2.968562126159668, 19.226675033569336, -56.936241149902344, 50.66777801513672, 0.605712890625, 0.69580078125, 0.237060546875
197, 1147026332, 0.9970402121543884, 0.022997261956334114, 0.07125500589609146, -0.017479505389928818, 12.590851783752441, 1.2117444276809692, 4.923815727233887, 26.01922607421875, -68.22643280029297, 65.87708282470703, 0.6240234375, 0.689697265625, 0.290771484375
198, 1147034665, 0.9974021315574646, 0.025567056611180305, 0.06615787744522095, -0.012615243904292583, 9.774404525756836, 2.6411259174346924, 6.945873737335205, 31.21068572998047, -67.94989013671875, 70.712890625, 0.640625, 0.702392578125, 0.21142578125
199, 1147042998, 0.9976792931556702, 0.028131308034062386, 0.06154504418373108, -0.00759853795170784, 7.78798246383667, 3.561187267303467, 7.31472635269165, 30.8873348236084, -60.85513687133789, 72.59420013427734, 0.6728515625, 0.697021484375, 0.25537109375
200, 1147051331, 0.9979203343391418, 0.030496418476104736, 0.05674831569194794, -0.002327478490769863, 6.882082462310791, 3.2597057819366455, 7.3015618324279785, 28.026193618774414, -63.594600677490234, 76.00170135498047, 0.68701171875, 0.707275390625, 0.178955078125
201, 1147059664, 0.9980659484863281, 0.03328828886151314, 0.05244257301092148, 0.002625358523800969, 4.703935623168945, 3.100114345550537, 7.039594650268555, 34.0884895324707, -56.497867584228516, 71.7321548461914, 0.7177734375, 0.699951171875, 0.220458984375
202, 1147067997, 0.9980068206787109, 0.037303049117326736, 0.05050419270992279, 0.006417491473257542, -6.117734909057617, 2.067549228668213, 1.0953128337860107, 51.95663070678711, -24.836523056030273, 55.63467788696289, 0.714111328125, 0.701416015625, 0.1533203125
203, 1147076330, 0.9979162812232971, 0.04278205335140228, 0.04772049933671951, 0.007501831743866205, -30.266420364379883, 6.521872520446777, 13.065851211547852, 73.78944396972656, -37.478267669677734, 19.88871955871582, 0.740966796875, 0.70166015625, 0.19384765625
204, 1147084663, 0.9980639815330505, 0.049657076597213745, 0.03698096051812172, 0.005966670345515013, -14.353412628173828, 20.325326919555664, 40.858699798583984, 93.79246520996094, -148.95681762695312, -10.451483726501465, 0.729736328125, 0.70654296875, 0.1142578125
205, 1147092996, 0.997985303401947, 0.054459601640701294, 0.03174528107047081, 0.00724852504208684, 4.129955291748047, 1.1081254482269287, 12.678126335144043, 64.40371704101562, -70.89471435546875, 23.38731575012207, 0.750244140625, 0.708984375, 0.143310546875
206, 1147101329, 0.9978663325309753, 0.058556441217660904, 0.02652541548013687, 0.0114582609385252, 20.01177978515625, -9.174172401428223, 0.9078691005706787, 53.58710861206055, -68.70658874511719, 63.286834716796875, 0.755126953125, 0.706298828125, 0.064453125
207, 1147109662, 0.9976749420166016, 0.0636947974562645, 0.020140107721090317, 0.013532740995287895, 16.538421630859375, -6.197201251983643, 6.33465576171875, 68.35591125488281, -86.26995849609375, 35.28170394897461, 0.797607421875, 0.712890625, 0.0869140625
208, 1147117995, 0.9974790811538696, 0.06742151826620102, 0.012601060792803764, 0.018223831430077553, 6.650899887084961, 1.186366319656372, 15.085576057434082, 48.22987365722656, -99.82998657226562, 71.83541870117188, 0.806884765625, 0.721435546875, -0.00537109375
209, 1147126328, 0.9972055554389954, 0.07062588632106781, 0.005595247261226177, 0.023723648861050606, -4.547782897949219, 4.1969313621521, 15.994955062866211, 41.02827072143555, -91.18553924560547, 82.30854797363281, 0.860107421875, 0.72705078125, 0.01220703125
210, 1147134661, 0.9967905879020691, 0.07419242709875107, -0.001038039568811655, 0.03006628155708313, -2.7812511920928955, 5.518040657043457, 13.59268856048584, 46.29113006591797, -85.80055236816406, 93.63360595703125, 0.869873046875, 0.7314453125, -0.0673828125
211, 1147142994, 0.996202826499939, 0.07883845269680023, -0.00754056591540575, 0.036171913146972656, -0.6500400304794312, 6.10453987121582, 5.747214317321777, 61.21999740600586, -84.2536392211914, 90.24786376953125, 0.912841796875, 0.72509765625, -0.0478515625
212, 1147151327, 0.9955815672874451, 0.08320430666208267, -0.014826836064457893, 0.04092897102236748, 1.3423314094543457, 9.550580978393555, 5.01084041595459, 56.98347473144531, -96.76358795166016, 72.72712707519531, 0.904052734375, 0.717529296875, -0.12109375
213, 1147159660, 0.9950069785118103, 0.0863061174750328, -0.022187259048223495, 0.044956982135772705, -0.3055066764354706, 9.477071762084961, 13.649679183959961, 39.31081771850586, -97.45714569091797, 63.00408935546875, 0.938232421875, 0.71435546875, -0.093505859375
214, 1147167993, 0.994365930557251, 0.09003814309835434, -0.030190501362085342, 0.047109153121709824, -4.392247676849365, 6.607771873474121, 13.439144134521484, 47.16606903076172, -109.32164001464844, 38.00659942626953, 0.921875, 0.705322265625, -0.177001953125
215, 1147176326, 0.9937475323677063, 0.09249220043420792, -0.0394941121339798, 0.04849683493375778, -1.5080504417419434, 3.266075611114502, 12.876348495483398, 28.319660186767578, -126.7803726196289, 29.626672744750977, 0.94970703125, 0.703369140625, -0.169677734375
216, 1147184659, 0.9928619265556335, 0.09557417035102844, -0.04918461665511131, 0.05169333145022392, 0.5257987976074219, -4.320720672607422, 13.76517391204834, 38.14706802368164, -130.7642059326172, 54.7281494140625, 0.930419921875, 0.697265625, -0.2646484375
217, 1147192992, 0.9913597702980042, 0.10389462113380432, -0.058926936239004135, 0.05422253534197807, 1.9347646236419678, -5.210068702697754, 10.190718650817871, 109.79659271240234, -136.0889434814453, 42.53914260864258, 0.962890625, 0.6943359375, -0.2802734375
218, 1147201325, 0.9893913269042969, 0.11426764726638794, -0.06933850049972534, 0.05692680552601814, 2.2710607051849365, 2.5544090270996094, 10.825258255004883, 138.28939819335938, -147.27427673339844, 44.60773849487305, 0.934814453125, 0.6748046875, -0.38427734375
219, 1147209658, 0.9871686697006226, 0.12390542775392532, -0.08061128854751587, 0.06039803475141525, 2.4981579780578613, 5.467316627502441, 10.42342758178711, 128.6028289794922, -157.0549774169922, 57.236446380615234, 0.9580078125, 0.659423828125, -0.40576171875
220, 1147217991, 0.9849342703819275, 0.13205896317958832, -0.09197621792554855, 0.06329372525215149, 4.9117255210876465, 5.5274176597595215, 11.726234436035156, 107.89775848388672, -158.46726989746094, 51.29560089111328, 0.91748046875, 0.638671875, -0.49658203125
221, 1147226324, 0.9828072786331177, 0.13897909224033356, -0.10177464038133621, 0.06646408140659332, 5.322383403778076, 2.466684579849243, 12.23814868927002, 92.55805206298828, -135.1339111328125, 53.57125473022461, 0.9375, 0.62646484375, -0.510009765625
222, 1147234657, 0.980780303478241, 0.14695501327514648, -0.10834476351737976, 0.0688224583864212, 4.9147047996521, 2.8059873580932617, 11.285357475280762, 108.59762573242188, -94.28439331054688, 34.923030853271484, 0.89208984375, 0.6025390625, -0.587158203125
223, 1147242990, 0.9792597889900208, 0.15337832272052765, -0.11198780685663223, 0.07060471922159195, 5.393121719360352, 6.552691459655762, 12.895773887634277, 88.39331817626953, -53.31949996948242, 22.99518585205078, 0.9072265625, 0.59130859375, -0.58935546875
224, 1147251323, 0.9783568978309631, 0.1571534276008606, -0.11318386346101761, 0.07287710905075073, 4.204565048217773, 6.805538654327393, 11.206026077270508, 54.71120834350586, -16.234792709350586, 27.989194869995117, 0.8720703125, 0.572509765625, -0.65625
225, 1147259656, 0.977858304977417, 0.1592596173286438, -0.11312533169984818, 0.07505393773317337, 4.182469367980957, 5.160373687744141, 10.991639137268066, 32.335140228271484, 3.1758244037628174, 26.100576400756836, 0.894287109375, 0.570068359375, -0.6416015625
226, 1147267989, 0.9775683879852295, 0.16049326956272125, -0.1127203181385994, 0.07679224014282227, 3.2938897609710693, 4.416780948638916, 10.560123443603516, 19.97848892211914, 7.663003444671631, 20.670175552368164, 0.856201171875, 0.558837890625, -0.698486328125
227, 1147276322, 0.9774335026741028, 0.16092662513256073, -0.1122744232416153, 0.07824188470840454, 3.7760093212127686, 4.606293678283691, 9.978047370910645, 8.300514221191406, 9.106338500976562, 17.694028854370117, 0.88134765625, 0.560791015625, -0.67333984375
228, 1147284655, 0.9774408936500549, 0.16050586104393005, -0.11180173605680466, 0.07967669516801834, 1.3700426816940308, 3.9636247158050537, 9.884652137756348, -3.317608594894409, 10.12588882446289, 18.68317413330078, 0.834716796875, 0.546875, -0.717041015625
229, 1147292988, 0.9775000810623169, 0.15969495475292206, -0.11170969158411026, 0.08070220053195953, 2.3452305793762207, 4.918013095855713, 9.33088207244873, -9.898648262023926, 5.0663299560546875, 14.482893943786621, 0.854736328125, 0.552001953125, -0.69140625
230, 1147301321, 0.9777531623840332, 0.1575137823820114, -0.1115647703409195, 0.08211148530244827, 3.024142026901245, 3.8642287254333496, 9.409823417663574, -27.918703079223633, 7.98592472076416, 21.497730255126953, 0.807861328125, 0.547607421875, -0.7333984375
231, 1147309654, 0.9779295325279236, 0.1559566706418991, -0.11153985559940338, 0.083013616502285, 1.0579655170440674, 1.8189820051193237, 9.045822143554688, -20.458534240722656, 4.896278381347656, 13.991436004638672, 0.825927734375, 0.553955078125, -0.69970703125
232, 1147317987, 0.9780980348587036, 0.15425024926662445, -0.11185477674007416, 0.08379083126783371, 2.79945969581604, 3.274623394012451, 9.05119514465332, -22.845916748046875, -0.22812053561210632, 13.355592727661133, 0.777099609375, 0.54736328125, -0.74072265625
233, 1147326320, 0.9782467484474182, 0.1525067687034607, -0.11237920075654984, 0.08453842252492905, 1.7120097875595093, 1.8832552433013916, 9.009123802185059, -23.771791458129883, -2.6540720462799072, 13.407176971435547, 0.794189453125, 0.559326171875, -0.71142578125
234, 1147334653, 0.9783548712730408, 0.15107674896717072, -0.11312021315097809, 0.08486664295196533, 1.7026054859161377, 2.750422477722168, 8.717964172363281, -20.1872501373291, -7.317246437072754, 7.855184555053711, 0.742919921875, 0.55517578125, -0.737548828125
235, 1147342986, 0.9784689545631409, 0.14938002824783325, -0.11411033570766449, 0.08522772789001465, 3.1862707138061523, 3.2655866146087646, 8.931262016296387, -24.204877853393555, -9.839483261108398, 9.157927513122559, 0.7578125, 0.568359375, -0.709228515625
236, 1147351319, 0.9786208271980286, 0.14745694398880005, -0.11522365361452103, 0.08533589541912079, 1.9983214139938354, 2.85160231590271, 9.552294731140137, -27.691728591918945, -12.131399154663086, 6.384084701538086, 0.719482421875, 0.56640625, -0.734619140625
237, 1147359652, 0.978756844997406, 0.14553560316562653, -0.11657857149839401, 0.08523274958133698, 2.1962625980377197, 3.3059496879577637, 9.419119834899902, -28.4353084564209, -15.400801658630371, 3.981236219406128, 0.728759765625, 0.58203125, -0.701416015625
238, 1147367985, 0.978911817073822, 0.1433398276567459, -0.11798159033060074, 0.08524409681558609, 2.7006418704986572, 2.5326764583587646, 9.592819213867188, -31.85802459716797, -15.905050277709961, 6.102355480194092, 0.693359375, 0.5830078125, -0.727294921875
239, 1147376318, 0.9790315628051758, 0.14156991243362427, -0.1193787083029747, 0.08488145470619202, 3.12882924079895, 2.310356378555298, 9.122270584106445, -26.838001251220703, -16.685636520385742, 0.34716281294822693, 0.70947265625, 0.598388671875, -0.69384765625
240, 1147384651, 0.9791984558105469, 0.13952365517616272, -0.12048519402742386, 0.08478129655122757, 2.3860089778900146, 2.5862410068511963, 8.700836181640625, -29.699350357055664, -12.295638084411621, 3.7722506523132324, 0.672607421875, 0.601318359375, -0.71826171875
241, 1147392984, 0.9792941808700562, 0.1380535364151001, -0.1216701939702034, 0.08438733965158463, 1.2249385118484497, 2.140364646911621, 8.487608909606934, -22.561519622802734, -14.272363662719727, -0.957358181476593, 0.69384765625, 0.614013671875, -0.6787109375
242, 1147401317, 0.9794216156005859, 0.13628625869750977, -0.12279122322797775, 0.08415762335062027, 3.2895431518554688, 2.7966339588165283, 8.699843406677246, -26.095876693725586, -13.13357925415039, 1.6462152004241943, 0.65771484375, 0.611328125, -0.70947265625
243, 1147409650, 0.9795258045196533, 0.13469606637954712, -0.12395720928907394, 0.08379572629928589, 1.521884560585022, 1.9760518074035645, 9.168379783630371, -24.120811462402344, -13.805338859558105, -0.3715090751647949, 0.676513671875, 0.624755859375, -0.686767578125
244, 1147417983, 0.9795975685119629, 0.13311365246772766, -0.12541253864765167, 0.08331948518753052, 3.026698350906372, 3.1100871562957764, 9.117091178894043, -24.304826736450195, -18.40463638305664, -1.30181884765625, 0.64111328125, 0.625732421875, -0.716552734375
245, 1147426316, 0.9796885251998901, 0.13139265775680542, -0.12679781019687653, 0.08288204669952393, 3.614572286605835, 1.939652442932129, 9.45085620880127, -26.23773193359375, -16.773160934448242, -0.7334898114204407, 0.661376953125, 0.634033203125, -0.68701171875
246, 1147434649, 0.9797521233558655, 0.1299331933259964, -0.12821942567825317, 0.08224175125360489, 2.2882723808288574, 2.304006338119507, 9.455880165100098, -22.882673263549805, -18.4000244140625, -3.7831482887268066, 0.625732421875, 0.635986328125, -0.7158203125
247, 1147442982, 0.979792594909668, 0.12846897542476654, -0.12975762784481049, 0.08164604008197784, 3.263812780380249, 2.505634069442749, 9.13137149810791, -23.136280059814453, -19.500207901000977, -2.979091167449951, 0.64013671875, 0.6494140625, -0.689697265625
248, 1147451315, 0.9798955917358398, 0.12696847319602966, -0.13090293109416962, 0.08092623949050903, 3.0260679721832275, 1.8764498233795166, 9.153349876403809, -23.339168548583984, -14.70012092590332, -5.3109869956970215, 0.607177734375, 0.6484375, -0.715576171875
249, 1147459648, 0.9799885749816895, 0.12561650574207306, -0.13199082016944885, 0.08013901114463806, 2.6886613368988037, 2.618980884552002, 8.949747085571289, -21.555185317993164, -13.80267333984375, -6.612062454223633, 0.619873046875, 0.65869140625, -0.69580078125
250, 1147467981, 0.980114221572876, 0.12414175271987915, -0.1328929364681244, 0.07940753549337387, 3.0762505531311035, 2.5131661891937256, 8.74732494354248, -22.781028747558594, -11.43222713470459, -5.958693504333496, 0.590576171875, 0.65771484375, -0.717529296875
251, 1147476314, 0.9802311062812805, 0.12279050797224045, -0.13371698558330536, 0.0786779522895813, 2.4933595657348633, 1.6075977087020874, 9.052714347839355, -21.192615509033203, -10.10379695892334, -6.315474510192871, 0.60400390625, 0.667236328125, -0.69873046875
252, 1147484647, 0.9803144335746765, 0.12165380269289017, -0.13460387289524078, 0.07788894325494766, 2.921428918838501, 2.2453174591064453, 8.722739219665527, -18.243183135986328, -11.770028114318848, -7.336047649383545, 0.5771484375, 0.6689453125, -0.723876953125
253, 1147492980, 0.9804106950759888, 0.12049777805805206, -0.13540682196617126, 0.07707709819078445, 2.5333075523376465, 2.09916615486145, 8.941460609436035, -18.654958724975586, -10.20822525024414, -7.792520046234131, 0.586669921875, 0.674072265625, -0.704345703125
254, 1147501313, 0.9804956316947937, 0.11942735314369202, -0.1362040489912033, 0.0762544721364975, 2.475465774536133, 1.8988381624221802, 9.176161766052246, -17.31876564025879, -10.684164047241211, -8.062981605529785, 0.558837890625, 0.672119140625, -0.734375
255, 1147509646, 0.98061203956604, 0.11831408739089966, -0.13683772087097168, 0.07535360008478165, 2.9905319213867188, 2.2944326400756836, 9.11620807647705, -18.10169219970703, -8.082422256469727, -9.368693351745605, 0.56640625, 0.678466796875, -0.71728515625
256, 1147517979, 0.980721116065979, 0.11727187782526016, -0.1374630630016327, 0.07441935688257217, 2.0486974716186523, 2.0732665061950684, 9.53675365447998, -17.007349014282227, -8.533232688903809, -9.929926872253418, 0.5390625, 0.6767578125, -0.74365234375
257, 1147526312, 0.9808279275894165, 0.11632629483938217, -0.1380237638950348, 0.07345065474510193, 3.6374599933624268, 2.217038631439209, 9.263299942016602, -15.877604484558105, -7.400083065032959, -10.70324420928955, 0.54541015625, 0.679931640625, -0.732421875
258, 1147534645, 0.9809741973876953, 0.1153314933180809, -0.1383342742919922, 0.0724756121635437, 2.727761745452881, 1.986194133758545, 9.10180377960205, -16.184873580932617, -4.332649230957031, -11.112253189086914, 0.519775390625, 0.677734375, -0.7607421875
259, 1147542978, 0.9810827970504761, 0.11453954130411148, -0.1387246996164322, 0.07150799036026001, 2.935112953186035, 2.0950350761413574, 8.84931468963623, -13.635483741760254, -5.254940986633301, -11.254718780517578, 0.52734375, 0.682861328125, -0.754638671875
260, 1147551311, 0.9812077879905701, 0.11375080049037933, -0.13897575438022614, 0.07055924087762833, 2.938944101333618, 1.7184425592422485, 8.680344581604004, -13.263747215270996, -3.7318668365478516, -11.219704627990723, 0.49609375, 0.67626953125, -0.791748046875
261, 1147559644, 0.9813582897186279, 0.113111712038517, -0.13921841979026794, 0.06899822503328323, 2.1992287635803223, 4.341951370239258, 8.88315486907959, -12.628363609313965, -4.261058807373047, -19.82699203491211, 0.50244140625, 0.67822265625, -0.7802734375
262, 1147567977, 0.9815747737884521, 0.11164294928312302, -0.1397499144077301, 0.06721487641334534, 2.7117233276367188, -1.032419204711914, 9.47704792022705, -24.444942474365234, -8.004737854003906, -20.831153869628906, 0.46826171875, 0.67431640625, -0.8134765625
263, 1147576310, 0.9816853404045105, 0.1116219162940979, -0.1399865597486496, 0.06510923057794571, 2.447977304458618, 2.280305862426758, 9.484589576721191, -5.2796101570129395, -5.651760101318359, -28.333877563476562, 0.46728515625, 0.675048828125, -0.80078125
264, 1147584643, 0.9818248152732849, 0.11080047488212585, -0.140442356467247, 0.06340514868497849, 4.0311126708984375, 1.8590621948242188, 9.201053619384766, -15.36160945892334, -7.630075931549072, -21.046463012695312, 0.427490234375, 0.667236328125, -0.842529296875
265, 1147592976, 0.9819602966308594, 0.11053820699453354, -0.140522301197052, 0.06155860424041748, 3.0350332260131836, 1.5926785469055176, 9.340502738952637, -7.934576988220215, -2.864467144012451, -24.63214683532715, 0.420166015625, 0.668212890625, -0.834228515625
266, 1147601309, 0.9820337891578674, 0.11034056544303894, -0.1408025473356247, 0.06008453294634819, 2.9265403747558594, 1.9763532876968384, 9.206939697265625, -6.2352752685546875, -5.582061290740967, -19.357938766479492, 0.3720703125, 0.6533203125, -0.8720703125
267, 1147609642, 0.9821093082427979, 0.11009090393781662, -0.14099754393100739, 0.05883840471506119, 3.297743558883667, 2.440047025680542, 8.883036613464355, -6.611598968505859, -3.6325862407684326, -16.325387954711914, 0.357421875, 0.650634765625, -0.859375
268, 1147617975, 0.9821825623512268, 0.10976997017860413, -0.14113345742225647, 0.057881224900484085, 2.7043673992156982, 1.944387674331665, 9.029465675354004, -6.779166221618652, -2.7475881576538086, -12.355820655822754, 0.30224609375, 0.632568359375, -0.890380859375
269, 1147626308, 0.9822278022766113, 0.10955066233873367, -0.14127734303474426, 0.05717301368713379, 2.948838710784912, 1.987614393234253, 8.97263240814209, -5.074385166168213, -2.2118663787841797, -9.172996520996094, 0.281005859375, 0.628662109375, -0.867431640625
270, 1147634641, 0.9822627305984497, 0.10934798419475555, -0.14135219156742096, 0.05677427724003792, 3.0194482803344727, 1.7860625982284546, 8.796182632446289, -3.9920291900634766, -1.2496671676635742, -5.1049933433532715, 0.2216796875, 0.61083984375, -0.887939453125
271, 1147642974, 0.9822771549224854, 0.10920485854148865, -0.14142195880413055, 0.056627754122018814, 3.7207820415496826, 2.337702512741089, 8.795269966125488, -2.8494815826416016, -0.4866192936897278, -1.82050621509552, 0.200927734375, 0.60302734375, -0.853515625
272, 1147651307, 0.9823327660560608, 0.10888630151748657, -0.14127425849437714, 0.05664518475532532, 2.679597854614258, 2.1110994815826416, 9.141615867614746, -4.606566429138184, 2.511411666870117, 0.39198747277259827, 0.147705078125, 0.5888671875, -0.86376953125
273, 1147659640, 0.9823148846626282, 0.10881289839744568, -0.14133210480213165, 0.05695052072405815, 2.269052505493164, 1.6512848138809204, 9.209430694580078, -0.9703185558319092, 0.23950591683387756, 4.154206275939941, 0.138671875, 0.58203125, -0.817138671875
274, 1147667973, 0.9822877049446106, 0.10881005227565765, -0.14135591685771942, 0.05736285448074341, 4.18113899230957, 2.441180944442749, 8.831625938415527, 0.41570624709129333, 0.37900105118751526, 5.434969902038574, 0.093505859375, 0.570068359375, -0.820556640625
275, 1147676306, 0.9823103547096252, 0.10859982669353485, -0.14116540551185608, 0.05784088373184204, 2.4114253520965576, 1.7408502101898193, 9.598661422729492, -2.347724199295044, 4.034178733825684, 6.347912788391113, 0.097412109375, 0.561767578125, -0.768798828125
276, 1147684639, 0.9822773337364197, 0.10858609527349472, -0.14113737642765045, 0.0584915392100811, 2.9918057918548584, 2.0747287273406982, 9.401238441467285, 0.7800943851470947, 1.4313106536865234, 8.603937149047852, 0.062744140625, 0.550048828125, -0.77197265625
277, 1147692972, 0.9822655916213989, 0.10850170254707336, -0.1409941166639328, 0.05918790027499199, 3.331589698791504, 1.942971110343933, 8.828904151916504, -0.20893532037734985, 3.5555758476257324, 9.145395278930664, 0.079833984375, 0.54296875, -0.721923828125
278, 1147701305, 0.9822695255279541, 0.10843345522880554, -0.14069589972496033, 0.05995454266667366, 2.448227882385254, 1.7658162117004395, 9.147192001342773, 0.4319712817668915, 5.369268894195557, 9.84292221069336, 0.054931640625, 0.5302734375, -0.730712890625
279, 1147709638, 0.9822293519973755, 0.10850020498037338, -0.1405462920665741, 0.06083545461297035, 2.7339837551116943, 1.839544653892517, 9.066988945007324, 2.239875316619873, 3.739870548248291, 11.365920066833496, 0.07861328125, 0.52978515625, -0.691162109375
280, 1147717971, 0.9822167158126831, 0.10847333073616028, -0.14028555154800415, 0.061683546751737595, 3.234727621078491, 2.0413880348205566, 8.820990562438965, 1.144277572631836, 4.919073104858398, 10.93152904510498, 0.055908203125, 0.51220703125, -0.699462890625
281, 1147726304, 0.9821864366531372, 0.10854628682136536, -0.140078604221344, 0.06250058114528656, 2.210697889328003, 1.8126437664031982, 9.164570808410645, 2.2339069843292236, 4.429866313934326, 10.39724063873291, 0.08544921875, 0.51123046875, -0.6689453125
282, 1147734637, 0.9821380972862244, 0.10867347568273544, -0.13995057344436646, 0.06331971287727356, 2.5264039039611816, 1.531660556793213, 8.731268882751465, 3.109530210494995, 2.882920742034912, 10.47203540802002, 0.060791015625, 0.4912109375, -0.689453125
283, 1147742970, 0.9820483326911926, 0.10884677618741989, -0.14001020789146423, 0.06427598744630814, 2.8516898155212402, 1.1602466106414795, 7.72486686706543, 3.7187135219573975, 0.8336282968521118, 12.53559684753418, 0.08837890625, 0.4853515625, -0.66162109375
284, 1147751303, 0.9819630980491638, 0.10910263657569885, -0.13992279767990112, 0.06532616168260574, 2.6032559871673584, 0.557315468788147, 9.32217788696289, 5.312764644622803, 2.496555805206299, 13.436037063598633, 0.06396484375, 0.468017578125, -0.678466796875
285, 1147759636, 0.9817880988121033, 0.10972849279642105, -0.1400977075099945, 0.06652317196130753, 1.4925187826156616, 2.246669054031372, 11.322574615478516, 10.320425987243652, -0.9313594698905945, 15.165282249450684, 0.09033203125, 0.4599609375, -0.6611328125
286, 1147767969, 0.9815911650657654, 0.11033956706523895, -0.14037518203258514, 0.0678216740489006, 5.204556465148926, 2.001319169998169, 9.423566818237305, 10.426852226257324, -2.591110944747925, 16.755313873291016, 0.0615234375, 0.43505859375, -0.687255859375
287, 1147776302, 0.9814754724502563, 0.1107480376958847, -0.14031608402729034, 0.06894224882125854, 2.4798989295959473, 1.3317480087280273, 8.558056831359863, 7.376169681549072, 2.415076732635498, 14.136434555053711, 0.083251953125, 0.4287109375, -0.672119140625
288, 1147784635, 0.9812816381454468, 0.11140532046556473, -0.14065663516521454, 0.06994222849607468, 1.6646177768707275, 2.3525748252868652, 10.697715759277344, 10.403080940246582, -3.9353718757629395, 12.732518196105957, 0.04541015625, 0.40673828125, -0.701416015625
289, 1147792968, 0.9810478091239929, 0.11199632287025452, -0.14136254787445068, 0.0708480179309845, 5.356896877288818, 2.0425188541412354, 10.361015319824219, 8.880240440368652, -8.630796432495117, 12.167059898376465, 0.06640625, 0.393798828125, -0.682373046875
290, 1147801301, 0.9809169769287109, 0.11219074577093124, -0.14176137745380402, 0.07155118882656097, 3.66145396232605, 1.059422492980957, 8.686880111694336, 3.433448076248169, -4.606157302856445, 9.653122901916504, 0.023193359375, 0.36962890625, -0.70654296875
291, 1147809634, 0.9807015657424927, 0.1125120222568512, -0.14263814687728882, 0.0722547322511673, 3.0563607215881348, 1.5217183828353882, 8.71039867401123, 4.6507391929626465, -10.94873046875, 10.207056999206543, 0.04150390625, 0.36181640625, -0.6865234375
292, 1147817967, 0.9805052876472473, 0.1125786080956459, -0.14369380474090576, 0.0727216824889183, 3.0721592903137207, 1.9735989570617676, 9.797279357910156, 0.699793815612793, -13.830946922302246, 7.795860290527344, -0.010009765625, 0.3369140625, -0.688720703125
293, 1147826300, 0.980280339717865, 0.1125490739941597, -0.1452256739139557, 0.07275547087192535, 1.424634337425232, 2.405468225479126, 9.864909172058105, -2.033975839614868, -20.486066818237305, 2.8878138065338135, -0.00390625, 0.327392578125, -0.667724609375
294, 1147834633, 0.9800229072570801, 0.11219847202301025, -0.14744369685649872, 0.0723036676645279, 0.26260265707969666, 2.95888090133667, 9.59373664855957, -7.81780481338501, -30.627582550048828, -1.897196650505066, -0.057861328125, 0.304443359375, -0.66455078125
295, 1147842966, 0.979507327079773, 0.11213886737823486, -0.15135087072849274, 0.07130130380392075, -1.5970065593719482, 1.7315534353256226, 9.851564407348633, -6.443507671356201, -54.6651496887207, -7.065807342529297, -0.050537109375, 0.296630859375, -0.640625
296, 1147851299, 0.9783346652984619, 0.11357855796813965, -0.15854515135288239, 0.06946546584367752, -1.8691396713256836, 0.6115802526473999, 10.751482963562012, 9.95577335357666, -103.4562759399414, -15.678033828735352, -0.107177734375, 0.27734375, -0.63037109375
297, 1147859632, 0.9758301377296448, 0.1180989071726799, -0.1712997555732727, 0.06682302802801132, 1.4647951126098633, -0.1338094174861908, 9.210092544555664, 46.257930755615234, -185.01670837402344, -23.306743621826172, -0.110107421875, 0.26416015625, -0.599609375
298, 1147867965, 0.9715936183929443, 0.12287961691617966, -0.1915544867515564, 0.0649166852235794, -3.049268960952759, 1.0199308395385742, 15.706314086914062, 47.565635681152344, -289.15753173828125, -0.25411245226860046, -0.17431640625, 0.240234375, -0.57373046875
299, 1147876298, 0.9625967741012573, 0.13674919307231903, -0.22393204271793365, 0.06754536926746368, -11.41624641418457, -1.7575962543487549, 15.037103652954102, 178.06495666503906, -463.8755798339844, 61.13784408569336, -0.193603515625, 0.2255859375, -0.537841796875
300, 1147884631, 0.9500212669372559, 0.1513158231973648, -0.26404234766960144, 0.06960979849100113, -2.8455610275268555, 7.774652481079102, 14.576480865478516, 185.2628936767578, -579.377197265625, 69.40560150146484, -0.276611328125, 0.194580078125, -0.50927734375
301, 1147892964, 0.9336186051368713, 0.16202299296855927, -0.3112920820713043, 0.07213263213634491, -6.249266147613525, 6.252673625946045, 17.070125579833984, 137.53231811523438, -681.7807006835938, 107.95819854736328, -0.317626953125, 0.18310546875, -0.458251953125
302, 1147901297, 0.9118884205818176, 0.1700189709663391, -0.3666888475418091, 0.07136888056993484, -6.635256290435791, 4.421069145202637, 19.27790069580078, 92.5421371459961, -814.2312622070312, 100.81202697753906, -0.412841796875, 0.168701171875, -0.403564453125
303, 1147909630, 0.8842340111732483, 0.1699131727218628, -0.43010520935058594, 0.06534630805253983, -4.356102466583252, 7.646353244781494, 19.454877853393555, -29.768754959106445, -949.158935546875, 100.37603759765625, -0.467041015625, 0.17578125, -0.323486328125
304, 1147917963, 0.8482807874679565, 0.15862610936164856, -0.5021528601646423, 0.055686354637145996, -4.623265743255615, 9.662755012512207, 19.80463981628418, -175.6801300048828, -1102.2430419921875, 149.92027282714844, -0.565673828125, 0.19775390625, -0.21142578125
305, 1147926296, 0.8036368489265442, 0.13709314167499542, -0.5779187083244324, 0.03720282018184662, 1.661264419555664, 9.338866233825684, 18.017908096313477, -340.3611755371094, -1217.55078125, 132.6676025390625, -0.6142578125, 0.23828125, -0.07177734375
306, 1147934629, 0.8003321290016174, 0.12001834809780121, -0.5868207812309265, 0.026572534814476967, 61.9037971496582, 0.8348250389099121, 58.1054573059082, -271.89501953125, -135.82571411132812, 36.49916076660156, -0.673828125, 0.2685546875, 0.034912109375
307, 1147942962, 0.8073574304580688, 0.12115459889173508, -0.5770320892333984, 0.02302449196577072, -10.068047523498535, -19.281057357788086, 20.930234909057617, -24.529354095458984, 158.11656188964844, -66.93927764892578, -0.649169921875, 0.28271484375, -0.00390625
308, 1147951295, 0.7983771562576294, 0.13086318969726562, -0.587235152721405, 0.024984152987599373, -15.827738761901855, -10.724519729614258, 4.103039741516113, 134.70738220214844, -184.22052001953125, -35.63812255859375, -0.6826171875, 0.279052734375, -0.019775390625
309, 1147959628, 0.7913868427276611, 0.1351175457239151, -0.5956664085388184, 0.02514735423028469, 11.814995765686035, 8.37561321258545, 16.558998107910156, 57.38679122924805, -150.47186279296875, -15.096992492675781, -0.675048828125, 0.291259765625, -0.0263671875
310, 1147967961, 0.7928593158721924, 0.12994156777858734, -0.5949998497962952, 0.02156800962984562, 4.572037220001221, 5.300694942474365, 15.592425346374512, -88.5232925415039, 14.588908195495605, 1.4993783235549927, -0.707763671875, 0.299072265625, -0.028076171875
311, 1147976294, 0.7948145866394043, 0.12439770996570587, -0.5936366319656372, 0.01978357322514057, 3.483015537261963, -10.13314437866211, 11.014236450195312, -78.44389343261719, 28.942777633666992, 22.765554428100586, -0.681396484375, 0.3291015625, -0.056396484375
312, 1147984627, 0.7977144718170166, 0.1244058832526207, -0.5896589159965515, 0.02186325378715992, 4.670125484466553, -8.975996017456055, 10.305152893066406, 12.818795204162598, 70.84063720703125, 14.873449325561523, -0.705078125, 0.34521484375, -0.072998046875
313, 1147992960, 0.8021442294120789, 0.12578068673610687, -0.5831711292266846, 0.025614898651838303, 2.6785831451416016, 0.9092913269996643, 10.707110404968262, 39.59351348876953, 112.62664794921875, 17.430797576904297, -0.66748046875, 0.369140625, -0.117431640625
314, 1148001293, 0.8081061840057373, 0.1257457733154297, -0.5747374892234802, 0.028811927884817123, 1.2770698070526123, 5.361419200897217, 11.038590431213379, 17.54331398010254, 146.5220489501953, 18.66080665588379, -0.684814453125, 0.38330078125, -0.14892578125
315, 1148009626, 0.8151751756668091, 0.12516245245933533, -0.5646932125091553, 0.030756594613194466, 0.35729753971099854, 6.223330020904541, 11.12806510925293, 0.3768590986728668, 170.54730224609375, 5.87576150894165, -0.637451171875, 0.4111328125, -0.193359375
316, 1148017959, 0.8228264451026917, 0.12487562000751495, -0.5535030364990234, 0.031586356461048126, -0.24914073944091797, 6.243406295776367, 9.959367752075195, -5.578030109405518, 186.5457305908203, -11.166075706481934, -0.65673828125, 0.42724609375, -0.221923828125
317, 1148026292, 0.8308520317077637, 0.1250828504562378, -0.541356086730957, 0.03120007924735546, -0.36355969309806824, 6.610459327697754, 9.190473556518555, -9.371246337890625, 197.1661376953125, -30.4232234954834, -0.60986328125, 0.450927734375, -0.261962890625
318, 1148034625, 0.8391442894935608, 0.12566028535366058, -0.5283718109130859, 0.029501497745513916, 0.4629109501838684, 6.70017671585083, 10.211730003356934, -15.109881401062012, 207.0565643310547, -49.796714782714844, -0.629638671875, 0.4677734375, -0.301513671875
319, 1148042958, 0.8478697538375854, 0.1264401078224182, -0.5142101049423218, 0.026807093992829323, 1.5017786026000977, 5.987482070922852, 11.779269218444824, -20.183454513549805, 221.1658172607422, -64.85009765625, -0.588623046875, 0.4912109375, -0.348876953125
320, 1148051291, 0.8566624522209167, 0.12774169445037842, -0.49926671385765076, 0.023347806185483932, 1.4954898357391357, 4.756316661834717, 10.665061950683594, -19.434873580932617, 230.05911254882812, -78.9636459350586, -0.611083984375, 0.50390625, -0.3955078125
321, 1148059624, 0.8652754426002502, 0.12915325164794922, -0.4839935004711151, 0.019207080826163292, 2.0822672843933105, 3.7097818851470947, 8.80703353881836, -22.295120239257812, 230.5815887451172, -88.10314178466797, -0.564208984375, 0.52783203125, -0.453125
322, 1148067957, 0.8735203742980957, 0.12971358001232147, -0.46896877884864807, 0.01434361282736063, 3.0221996307373047, 2.58516263961792, 8.177044868469238, -36.748435974121094, 225.01315307617188, -90.6640625, -0.57373046875, 0.54345703125, -0.520751953125
323, 1148076290, 0.8815694451332092, 0.12871341407299042, -0.45407962799072266, 0.008981907740235329, 4.639299392700195, 0.890622079372406, 8.969712257385254, -58.272926330566406, 220.58665466308594, -86.11494445800781, -0.507568359375, 0.57080078125, -0.568115234375
324, 1148084623, 0.8896199464797974, 0.12629640102386475, -0.4388771653175354, 0.003656592220067978, 6.167846202850342, -1.1859240531921387, 9.36815071105957, -75.29869079589844, 225.5867156982422, -77.57037353515625, -0.489990234375, 0.594970703125, -0.63037109375
325, 1148092956, 0.8975609540939331, 0.12267658859491348, -0.4234786629676819, -0.001195255434140563, 6.705802917480469, -3.0075106620788574, 9.149096488952637, -86.82816314697266, 227.21543884277344, -64.67414855957031, -0.395263671875, 0.634765625, -0.659423828125
326, 1148101289, 0.9050491452217102, 0.11759378015995026, -0.40869855880737305, -0.004891795106232166, 7.3975629806518555, -3.891564130783081, 9.03321361541748, -97.51263427734375, 219.86358642578125, -41.036128997802734, -0.35888671875, 0.666259765625, -0.690185546875
327, 1148109622, 0.912301242351532, 0.11151379346847534, -0.3939806818962097, -0.007159396540373564, 8.091922760009766, -3.835482597351074, 8.542789459228516, -101.35264587402344, 218.98187255859375, -17.431079864501953, -0.25341796875, 0.703369140625, -0.691162109375
328, 1148117955, 0.9193889498710632, 0.10482171177864075, -0.3790452480316162, -0.007867814972996712, 8.832789421081543, -2.9465768337249756, 8.534262657165527, -100.50843048095703, 224.1753387451172, 4.965647220611572, -0.211181640625, 0.730712890625, -0.704345703125
329, 1148126288, 0.9264934062957764, 0.09824828058481216, -0.3631957769393921, -0.0068404353223741055, 9.101092338562012, -2.3618247509002686, 8.60009765625, -89.89518737792969, 237.30535888671875, 25.060367584228516, -0.108642578125, 0.762939453125, -0.6845703125
330, 1148134621, 0.9334495067596436, 0.09234953671693802, -0.3465892970561981, -0.00450281985104084, 8.431605339050293, -1.177386999130249, 8.519980430603027, -74.81243896484375, 249.0730743408203, 37.26578903198242, -0.067138671875, 0.780517578125, -0.68798828125
331, 1148142954, 0.9402058124542236, 0.08699191361665726, -0.3293091952800751, -0.0013725061435252428, 7.9559197425842285, 0.6032346487045288, 9.16028881072998, -63.67510223388672, 256.7847900390625, 44.04051208496094, 0.037109375, 0.7978515625, -0.6650390625
332, 1148151287, 0.9467101097106934, 0.08193664252758026, -0.3114854693412781, 0.002008262323215604, 7.891125202178955, 2.188943862915039, 9.833101272583008, -58.541263580322266, 264.00250244140625, 45.20918655395508, 0.078369140625, 0.8017578125, -0.6767578125
333, 1148159620, 0.953009307384491, 0.07710786163806915, -0.29291778802871704, 0.005258024670183659, 7.8489556312561035, 2.9314818382263184, 10.144749641418457, -55.70526123046875, 271.63800048828125, 41.72628402709961, 0.179931640625, 0.810546875, -0.64697265625
334, 1148167953, 0.9589519500732422, 0.0727304145693779, -0.27395862340927124, 0.00830535776913166, 7.99113655090332, 2.9156088829040527, 10.88289737701416, -50.396522521972656, 276.10546875, 36.84115982055664, 0.2197265625, 0.809326171875, -0.65576171875
335, 1148176286, 0.9645708799362183, 0.06902621686458588, -0.2543911337852478, 0.011159437708556652, 8.420415878295898, 3.0812625885009766, 11.421451568603516, -41.67048263549805, 281.6230773925781, 31.21505355834961, 0.31787109375, 0.811767578125, -0.62841796875
336, 1148184619, 0.9698110222816467, 0.06580060720443726, -0.23441311717033386, 0.01372268795967102, 8.452353477478027, 3.6678247451782227, 11.28580093383789, -36.0977897644043, 286.4091796875, 25.320606231689453, 0.357421875, 0.804931640625, -0.637939453125
337, 1148192952, 0.9746522903442383, 0.06265917420387268, -0.21418555080890656, 0.015874316915869713, 8.550169944763184, 3.9822568893432617, 11.464962005615234, -35.73765563964844, 287.0599365234375, 19.437917709350586, 0.4619140625, 0.80517578125, -0.587646484375
338, 1148201285, 0.9790463447570801, 0.05959990993142128, -0.19392110407352448, 0.017648078501224518, 8.904265403747559, 3.943462610244751, 12.17751407623291, -35.51279067993164, 286.89678955078125, 14.167524337768555, 0.505615234375, 0.798095703125, -0.5830078125
339, 1148209618, 0.9830173850059509, 0.05687452480196953, -0.173420712351799, 0.019190670922398567, 9.204591751098633, 3.658386468887329, 12.162799835205078, -31.094160079956055, 287.6951599121094, 10.117408752441406, 0.600830078125, 0.793701171875, -0.51611328125
340, 1148217951, 0.9865018129348755, 0.0543714202940464, -0.15308141708374023, 0.020611975342035294, 9.179241180419922, 3.9288249015808105, 12.022295951843262, -28.176082611083984, 285.1834716796875, 8.158378601074219, 0.633056640625, 0.7861328125, -0.494873046875
341, 1148226284, 0.9895007610321045, 0.05191437527537346, -0.13312646746635437, 0.021705761551856995, 9.233752250671387, 4.341000556945801, 11.417036056518555, -27.874914169311523, 277.7423095703125, 4.0890421867370605, 0.719482421875, 0.781494140625, -0.40771484375
342, 1148234617, 0.9920158386230469, 0.049428343772888184, -0.11385969072580338, 0.0223199725151062, 9.292896270751953, 5.429940223693848, 11.496874809265137, -29.118947982788086, 268.1022644042969, -1.7939820289611816, 0.737548828125, 0.767822265625, -0.379638671875
343, 1148242950, 0.9941269755363464, 0.046727824956178665, -0.0950426235795021, 0.022271819412708282, 9.817333221435547, 6.43618106842041, 12.760089874267578, -32.858985900878906, 260.05078125, -10.00918960571289, 0.798095703125, 0.760009765625, -0.275390625
344, 1148251283, 0.9958863854408264, 0.044044625014066696, -0.07625498622655869, 0.02136981301009655, 10.307291984558105, 6.423748016357422, 14.226801872253418, -33.60781478881836, 259.53253173828125, -21.63471031188965, 0.795166015625, 0.748291015625, -0.24365234375
345, 1148259616, 0.9972767233848572, 0.04161292687058449, -0.05764630064368248, 0.019624127075076103, 10.020110130310059, 6.0773773193359375, 15.04837417602539, -30.829755783081055, 255.26849365234375, -33.18640899658203, 0.82958984375, 0.738037109375, -0.1376953125
346, 1148267949, 0.9982808232307434, 0.03947802260518074, -0.03977179899811745, 0.017202435061335564, 10.775654792785645, 6.440841197967529, 14.1041259765625, -27.320497512817383, 245.26632690429688, -42.21743392944336, 0.8037109375, 0.7265625, -0.1181640625
347, 1148276282, 0.998961329460144, 0.03729204833507538, -0.022151028737425804, 0.013990027830004692, 11.620746612548828, 6.915459156036377, 12.196757316589355, -28.32452392578125, 240.41725158691406, -52.781803131103516, 0.81640625, 0.71630859375, -0.01611328125
348, 1148284615, 0.9993287920951843, 0.03499460220336914, -0.0051051839254796505, 0.009601728059351444, 12.365033149719238, 7.37103271484375, 11.061820030212402, -30.17704963684082, 232.61204528808594, -68.59661102294922, 0.788330078125, 0.709716796875, -0.017578125
349, 1148292948, 0.999398410320282, 0.032656099647283554, 0.010950853116810322, 0.004176672548055649, 12.97154712677002, 7.0944437980651855, 8.653325080871582, -30.824907302856445, 217.80894470214844, -82.28535461425781, 0.789306640625, 0.702880859375, 0.07666015625
350, 1148301281, 0.9992262721061707, 0.029993807896971703, 0.025379326194524765, -0.00204067793674767, 13.696637153625488, 5.8975725173950195, 5.608712673187256, -35.1161994934082, 195.82412719726562, -92.51885223388672, 0.75146484375, 0.70361328125, 0.06787109375
351, 1148309614, 0.9988817572593689, 0.02679338864982128, 0.03794161602854729, -0.008869871497154236, 14.892334938049316, 4.372262001037598, 3.5828588008880615, -42.239662170410156, 169.38978576660156, -100.31895446777344, 0.739990234375, 0.700439453125, 0.156982421875
352, 1148317947, 0.9984295964241028, 0.023183299228549004, 0.04842659458518028, -0.016026483848690987, 16.26074981689453, 2.8099215030670166, 3.2699146270751953, -47.33702850341797, 141.32101440429688, -104.30696105957031, 0.70068359375, 0.698974609375, 0.13916015625
353, 1148326280, 0.9979037642478943, 0.01943153142929077, 0.05727361515164375, -0.023041486740112305, 18.12830924987793, 1.351323127746582, 2.222205400466919, -49.084228515625, 118.43123626708984, -101.94329071044922, 0.686767578125, 0.69775390625, 0.224365234375
354, 1148334613, 0.9973791837692261, 0.015785634517669678, 0.06431790441274643, -0.029145943000912666, 19.234336853027344, -0.5045503377914429, -1.1711294651031494, -47.68614959716797, 94.4295425415039, -88.88841247558594, 0.651611328125, 0.70263671875, 0.19677734375
355, 1148342946, 0.9969273209571838, 0.012609793804585934, 0.06944752484560013, -0.03397989645600319, 20.184736251831055, -2.1080334186553955, -3.2694284915924072, -41.71202087402344, 68.2503662109375, -70.6058578491211, 0.6328125, 0.689453125, 0.272216796875
356, 1148351279, 0.9966286420822144, 0.010518375784158707, 0.07238028943538666, -0.03718452528119087, 20.450794219970703, -2.942704677581787, -3.024453639984131, -27.297863006591797, 39.092872619628906, -46.77705764770508, 0.60205078125, 0.6904296875, 0.236083984375
357, 1148359612, 0.9965119361877441, 0.009788147173821926, 0.07336705923080444, -0.038550667464733124, 19.8783016204834, -2.9939582347869873, -2.0507712364196777, -9.595122337341309, 13.047295570373535, -19.858932495117188, 0.598388671875, 0.6806640625, 0.301513671875
358, 1148367945, 0.9965474009513855, 0.010088294744491577, 0.07294013351202011, -0.038367148488759995, 18.427453994750977, -1.5985074043273926, -1.256679654121399, 3.780571699142456, -5.568432807922363, 2.695911407470703, 0.587158203125, 0.681884765625, 0.248779296875
359, 1148376278, 0.9967250823974609, 0.010893255472183228, 0.07116596400737762, -0.03682954981923103, 15.966500282287598, -0.23419010639190674, 0.57548987865448, 9.965420722961426, -23.7101993560791, 22.01311492919922, 0.60107421875, 0.677978515625, 0.296875
360, 1148384611, 0.9969955086708069, 0.01213050913065672, 0.06833712756633759, -0.03440064191818237, 13.552021026611328, 1.0905689001083374, 3.0046985149383545, 15.605113983154297, -37.91364288330078, 34.865299224853516, 0.6083984375, 0.687744140625, 0.230224609375
361, 1148392944, 0.9973179697990417, 0.013603588566184044, 0.06467665731906891, -0.03145846724510193, 10.928009033203125, 2.3905558586120605, 4.970955848693848, 18.68428611755371, -49.016544342041016, 42.278751373291016, 0.63232421875, 0.690185546875, 0.277099609375
362, 1148401277, 0.9976544976234436, 0.01518622413277626, 0.06047846004366875, -0.02825414016842842, 8.985033988952637, 3.355825424194336, 6.471785068511963, 20.23845863342285, -56.45838928222656, 46.08845520019531, 0.637939453125, 0.697021484375, 0.207275390625
363, 1148409610, 0.9979802370071411, 0.017017344012856483, 0.05592798441648483, -0.02487395703792572, 8.442612648010254, 3.555554151535034, 6.605258464813232, 23.575824737548828, -60.89292526245117, 48.76352310180664, 0.657958984375, 0.689453125, 0.26171875
364, 1148417943, 0.9982897639274597, 0.019150758162140846, 0.05109017342329025, -0.02101142704486847, 9.921623229980469, 2.385563611984253, 5.906434535980225, 27.521652221679688, -64.8628921508789, 55.6907958984375, 0.657958984375, 0.690185546875, 0.1884765625
365, 1148426276, 0.9985584616661072, 0.022543741390109062, 0.04580371826887131, -0.01660098508000374, 9.292638778686523, 0.5326991081237793, 3.0257961750030518, 44.48063659667969, -70.15091705322266, 64.1852035522461, 0.68798828125, 0.68896484375, 0.2294921875
366, 1148434609, 0.9987496137619019, 0.027636654675006866, 0.03980931639671326, -0.01231224276125431, 1.2392288446426392, -1.238133430480957, -3.690467119216919, 68.17461395263672, -79.80747985839844, 63.804534912109375, 0.696533203125, 0.69482421875, 0.15478515625
367, 1148442942, 0.998892605304718, 0.03334951773285866, 0.03170393407344818, -0.009843271225690842, -12.497997283935547, 3.919106960296631, 16.410430908203125, 77.96812438964844, -108.94328308105469, 39.92023468017578, 0.730712890625, 0.69873046875, 0.183837890625
368, 1148451275, 0.9988823533058167, 0.04038733243942261, 0.023070530965924263, -0.008449427783489227, -6.73950719833374, 13.394266128540039, 40.76655960083008, 96.87274169921875, -116.86286163330078, 25.976051330566406, 0.7314453125, 0.7109375, 0.099853515625
369, 1148459608, 0.9987578392028809, 0.04710107296705246, 0.015588046051561832, -0.00471202377229929, -4.7502522468566895, -1.5469777584075928, 17.648221969604492, 91.51117706298828, -99.37933349609375, 57.38222885131836, 0.769775390625, 0.712890625, 0.12451171875
370, 1148467941, 0.9985876679420471, 0.052567921578884125, 0.007741428911685944, 0.0005916936788707972, 11.987312316894531, -4.728720188140869, 6.117133140563965, 74.1983413696289, -103.8104476928711, 78.89044952392578, 0.763916015625, 0.7109375, 0.04833984375
371, 1148476274, 0.9983526468276978, 0.05714648962020874, 0.00011563918087631464, 0.005186358466744423, 10.93042278289795, -1.811645269393921, 7.411190986633301, 62.00410461425781, -100.9381103515625, 68.86895751953125, 0.801025390625, 0.714111328125, 0.07080078125
372, 1148484607, 0.9980899095535278, 0.06017845496535301, -0.00771356699988246, 0.01168019324541092, 5.667654037475586, 3.3313395977020264, 10.908814430236816, 40.89533996582031, -102.46640014648438, 95.13431549072266, 0.80029296875, 0.71337890625, -0.006591796875
373, 1148492940, 0.9977033138275146, 0.06353399902582169, -0.015381237491965294, 0.017765669152140617, -2.5339224338531494, 8.2276029586792, 11.93373966217041, 45.34502029418945, -100.21669006347656, 89.33594512939453, 0.854736328125, 0.718994140625, 0.006103515625
374, 1148501273, 0.9971448183059692, 0.06839413940906525, -0.02258782647550106, 0.022689061239361763, -4.120660781860352, 15.525457382202148, 14.620428085327148, 66.08169555664062, -95.74482727050781, 72.75708770751953, 0.862060546875, 0.721923828125, -0.08447265625
375, 1148509606, 0.9966485500335693, 0.07151153683662415, -0.03002101555466652, 0.02602558396756649, -2.3213794231414795, 15.49929428100586, 8.692800521850586, 41.45858383178711, -99.33677673339844, 51.68580627441406, 0.904052734375, 0.720947265625, -0.071533203125
376, 1148517939, 0.9962480664253235, 0.07219579070806503, -0.038099538534879684, 0.028755005449056625, 0.9931387305259705, 7.3311076164245605, 8.753242492675781, 7.637784004211426, -108.31311798095703, 45.01691436767578, 0.891845703125, 0.718505859375, -0.141357421875
377, 1148526272, 0.9957674741744995, 0.07371518015861511, -0.04639757424592972, 0.029348256066441536, 1.3096381425857544, 2.0655596256256104, 14.683499336242676, 17.739055633544922, -113.39651489257812, 15.534205436706543, 0.920654296875, 0.7216796875, -0.12060546875
378, 1148534605, 0.9951984286308289, 0.07499797642230988, -0.05493314564228058, 0.03063792549073696, 2.2353618144989014, -2.917173147201538, 12.028035163879395, 15.152281761169434, -116.32109069824219, 25.526229858398438, 0.8984375, 0.71875, -0.1943359375
379, 1148542938, 0.9944090247154236, 0.07706350833177567, -0.06402809172868729, 0.033363547176122665, 2.927225351333618, -6.722058296203613, 11.821401596069336, 26.70391273498535, -122.5755615234375, 45.23659133911133, 0.927734375, 0.72216796875, -0.193359375
380, 1148551271, 0.9931471943855286, 0.0830795094370842, -0.07358812540769577, 0.036635562777519226, 1.1351127624511719, -4.631781578063965, 12.3084135055542, 81.73188781738281, -131.0023193359375, 49.96048355102539, 0.908447265625, 0.7158203125, -0.2939453125
381, 1148559604, 0.9914875626564026, 0.09106259793043137, -0.08377771824598312, 0.040524013340473175, 0.7141135931015015, 2.3585076332092285, 9.530405044555664, 109.18365478515625, -139.86279296875, 57.27714157104492, 0.9326171875, 0.71142578125, -0.303955078125
382, 1148567937, 0.989728569984436, 0.09811060130596161, -0.09462392330169678, 0.04311579465866089, 2.2189242839813232, 7.519986629486084, 11.738870620727539, 94.87415313720703, -150.46090698242188, 41.58394241333008, 0.901611328125, 0.696044921875, -0.3994140625
383, 1148576270, 0.9880642294883728, 0.10308962315320969, -0.10493765026330948, 0.04572329670190811, 3.8485467433929443, 4.409521102905273, 12.848947525024414, 66.77445220947266, -141.4238739013672, 43.673763275146484, 0.921630859375, 0.693115234375, -0.41259765625
384, 1148584603, 0.9863438606262207, 0.10832884162664413, -0.11437377333641052, 0.04806643724441528, 4.630186080932617, 0.014032498002052307, 10.892433166503906, 70.7072982788086, -130.53575134277344, 38.537940979003906, 0.877685546875, 0.675537109375, -0.4931640625
385, 1148592936, 0.9845678210258484, 0.11457911133766174, -0.12265757471323013, 0.04953625798225403, 4.522002220153809, 1.2577197551727295, 11.156987190246582, 83.71906280517578, -116.53955841064453, 23.387453079223633, 0.88818359375, 0.673095703125, -0.4990234375
386, 1148601269, 0.9830098748207092, 0.12145911902189255, -0.12792816758155823, 0.050740137696266174, 4.84574031829834, 5.353291988372803, 11.621360778808594, 93.67821502685547, -76.64470672607422, 13.862977027893066, 0.841064453125, 0.6533203125, -0.5810546875
387, 1148609602, 0.9819197058677673, 0.1255202442407608, -0.13189643621444702, 0.05179259553551674, 3.606534242630005, 6.938715934753418, 9.650514602661133, 55.27574157714844, -56.067806243896484, 14.221423149108887, 0.860107421875, 0.651611328125, -0.580078125
388, 1148617935, 0.9812291860580444, 0.12761083245277405, -0.13444963097572327, 0.05318771302700043, 4.757486343383789, 4.434350490570068, 10.411343574523926, 29.763919830322266, -34.673526763916016, 19.748579025268555, 0.81591796875, 0.64208984375, -0.64453125
389, 1148626268, 0.9807431697845459, 0.129506915807724, -0.13589651882648468, 0.05388590693473816, 4.039278507232666, 3.243809461593628, 10.902509689331055, 26.118953704833984, -20.006994247436523, 8.56616497039795, 0.83544921875, 0.646484375, -0.625732421875
390, 1148634601, 0.9803821444511414, 0.13073642551898956, -0.13690228760242462, 0.05493177846074104, 2.8729987144470215, 3.5970184803009033, 10.902410507202148, 18.064895629882812, -13.152915954589844, 13.668109893798828, 0.787841796875, 0.6337890625, -0.671142578125
391, 1148642934, 0.980133056640625, 0.131125345826149, -0.13804036378860474, 0.055596690624952316, 3.7740416526794434, 4.416844367980957, 10.55992317199707, 5.525516510009766, -14.32532787322998, 10.221196174621582, 0.804931640625, 0.640869140625, -0.649169921875
392, 1148651267, 0.9800572991371155, 0.13042815029621124, -0.13886839151382446, 0.05650173872709274, 2.915677785873413, 3.5491058826446533, 10.394245147705078, -8.544681549072266, -9.004636764526367, 14.875125885009766, 0.760009765625, 0.6328125, -0.697265625
393, 1148659600, 0.9800003170967102, 0.12963199615478516, -0.13978490233421326, 0.057059355080127716, 2.678654193878174, 3.348832130432129, 9.579803466796875, -10.839049339294434, -10.25699234008789, 10.484996795654297, 0.768798828125, 0.64013671875, -0.674560546875
394, 1148667933, 0.9801284670829773, 0.12742078304290771, -0.14061994850635529, 0.0577833354473114, 3.278475284576416, 3.8817527294158936, 9.362909317016602, -29.660646438598633, -7.847107887268066, 15.198029518127441, 0.7275390625, 0.63134765625, -0.7158203125
395, 1148676266, 0.9802350401878357, 0.12511508166790009, -0.14164556562900543, 0.058503806591033936, 2.2577316761016846, 1.740366816520691, 8.910605430603027, -31.2547550201416, -9.940716743469238, 15.647868156433105, 0.743408203125, 0.645751953125, -0.6923828125
396, 1148684599, 0.9803275465965271, 0.12302196025848389, -0.14265048503875732, 0.05894964188337326, 3.898256778717041, 2.1842892169952393, 8.94730281829834, -28.683462142944336, -10.781042098999023, 11.544487953186035, 0.6962890625, 0.64208984375, -0.725830078125
397, 1148692932, 0.9803909063339233, 0.12109922617673874, -0.14365413784980774, 0.05943802744150162, 2.12853741645813, 0.9971286654472351, 9.071016311645508, -26.451995849609375, -10.442137718200684, 11.774399757385254, 0.708984375, 0.65673828125, -0.695556640625
398, 1148701265, 0.9803679585456848, 0.11998717486858368, -0.14471514523029327, 0.059497661888599396, 3.4511380195617676, 1.94576096534729, 8.90023136138916, -16.07352638244629, -13.206010818481445, 4.588676452636719, 0.65869140625, 0.653564453125, -0.725341796875
399, 1148709598, 0.9803947806358337, 0.11866048723459244, -0.14552201330661774, 0.05974740535020828, 3.392481565475464, 2.289844512939453, 9.419561386108398, -18.656545639038086, -8.748954772949219, 7.092187404632568, 0.676513671875, 0.667724609375, -0.689208984375
400, 1148717931, 0.9804067611694336, 0.11766847968101501, -0.14624668657779694, 0.05974508821964264, 2.8714163303375244, 2.10677170753479, 9.598788261413574, -14.362906455993652, -8.799466133117676, 2.9300007820129395, 0.63232421875, 0.6669921875, -0.71484375
401, 1148726264, 0.9804604053497314, 0.11644835770130157, -0.146843820810318, 0.05978872627019882, 3.688570737838745, 2.7169768810272217, 9.397025108337402, -17.50157356262207, -6.288501739501953, 3.7378995418548584, 0.6484375, 0.6796875, -0.6806640625
402, 1148734597, 0.9805111885070801, 0.11542763561010361, -0.14733517169952393, 0.05972728878259659, 2.6769461631774902, 1.4751442670822144, 9.225973129272461, -14.741047859191895, -5.64658260345459, 1.7809455394744873, 0.6083984375, 0.68310546875, -0.706787109375
403, 1148742930, 0.9805513024330139, 0.11466402560472488, -0.14774100482463837, 0.05953725427389145, 3.4157168865203857, 2.1204349994659424, 9.02746868133545, -11.640877723693848, -4.485565662384033, -0.6247056722640991, 0.629638671875, 0.69580078125, -0.6748046875
404, 1148751263, 0.9806184768676758, 0.11380098015069962, -0.14801430702209473, 0.05940809100866318, 2.6034417152404785, 1.8755412101745605, 8.601358413696289, -12.598414421081543, -2.910827398300171, 0.19060835242271423, 0.594970703125, 0.694091796875, -0.7021484375
405, 1148759596, 0.9806382060050964, 0.11324767768383026, -0.1483849287033081, 0.05921419709920883, 3.0956003665924072, 1.9275206327438354, 8.447819709777832, -8.750207901000977, -4.230318546295166, -1.1433424949645996, 0.611083984375, 0.70751953125, -0.6787109375
406, 1148767929, 0.9807493090629578, 0.11245609819889069, -0.1483437865972519, 0.05898517370223999, 3.37070894241333, 2.392454147338867, 8.714057922363281, -11.650020599365234, 1.204317331314087, -1.8257825374603271, 0.58154296875, 0.708740234375, -0.698974609375
407, 1148776262, 0.9808578491210938, 0.11178401857614517, -0.1482185572385788, 0.05877414345741272, 1.8882354497909546, 1.7289198637008667, 9.112481117248535, -10.12136459350586, 2.706336498260498, -1.9743455648422241, 0.595947265625, 0.720703125, -0.66796875
408, 1148784595, 0.9809499979019165, 0.1113840788602829, -0.14802084863185883, 0.05849205702543259, 3.8903884887695312, 2.3192145824432373, 8.948668479919434, -6.319263935089111, 2.8787715435028076, -3.5661425590515137, 0.565185546875, 0.719482421875, -0.697265625
409, 1148792928, 0.9811111688613892, 0.11070200055837631, -0.14758357405662537, 0.058187492191791534, 2.6304495334625244, 1.4506915807724, 9.69935417175293, -10.276764869689941, 6.882610321044922, -3.7370662689208984, 0.58056640625, 0.72998046875, -0.667236328125
410, 1148801261, 0.9812164306640625, 0.1104952022433281, -0.14721259474754333, 0.05774621292948723, 2.644958019256592, 1.75102698802948, 9.439454078674316, -3.917492628097534, 4.845714569091797, -6.3814287185668945, 0.548583984375, 0.72802734375, -0.700439453125
411, 1148809594, 0.9813427925109863, 0.11009770631790161, -0.14679081737995148, 0.057428691536188126, 3.594539165496826, 2.4963698387145996, 9.064175605773926, -6.422027111053467, 6.352471351623535, -4.437103271484375, 0.563720703125, 0.7373046875, -0.677978515625
412, 1148817927, 0.9815220236778259, 0.10959892719984055, -0.14611177146434784, 0.057051073759794235, 2.5790188312530518, 1.6088696718215942, 9.09668254852295, -7.597719669342041, 9.482582092285156, -5.456088542938232, 0.538330078125, 0.7353515625, -0.707763671875
413, 1148826260, 0.9816758632659912, 0.1091739684343338, -0.1455608606338501, 0.05662289634346962, 2.9548308849334717, 2.3612380027770996, 8.811178207397461, -6.954930782318115, 8.003923416137695, -6.094958305358887, 0.5498046875, 0.7470703125, -0.68359375
414, 1148834593, 0.9818035960197449, 0.10848241299390793, -0.1453322172164917, 0.05632572993636131, 3.308924674987793, 2.228606700897217, 8.505138397216797, -10.31308650970459, 3.569331169128418, -3.2657129764556885, 0.52294921875, 0.744384765625, -0.7177734375
415, 1148842926, 0.9818782806396484, 0.10788863897323608, -0.1454285830259323, 0.05591370537877083, 1.961943507194519, 1.7837090492248535, 9.119791030883789, -9.586358070373535, -0.7394317984580994, -4.509437561035156, 0.534423828125, 0.751953125, -0.694091796875
416, 1148851259, 0.981926441192627, 0.10727208852767944, -0.1456819325685501, 0.055593810975551605, 2.6320652961730957, 1.989909291267395, 9.08779239654541, -9.599472999572754, -3.190304756164551, -2.944356679916382, 0.50390625, 0.749267578125, -0.723876953125
417, 1148859592, 0.9819434285163879, 0.10670717805624008, -0.14612624049186707, 0.05521365627646446, 2.7740328311920166, 1.6347758769989014, 9.117294311523438, -9.313849449157715, -5.530652046203613, -3.5722382068634033, 0.51708984375, 0.755615234375, -0.701904296875
418, 1148867925, 0.9819456934928894, 0.10616277903318405, -0.14667397737503052, 0.054767679423093796, 3.7252683639526367, 2.099703311920166, 9.092434883117676, -9.035627365112305, -7.497390270233154, -4.32429838180542, 0.48486328125, 0.75390625, -0.73095703125
419, 1148876258, 0.9819973707199097, 0.10534008592367172, -0.14710591733455658, 0.054270438849925995, 1.9933768510818481, 1.5454223155975342, 9.516865730285645, -13.07199764251709, -5.2752532958984375, -4.67559814453125, 0.497314453125, 0.761962890625, -0.71533203125
420, 1148884591, 0.9819436073303223, 0.10489366948604584, -0.14796259999275208, 0.05377695709466934, 2.9121572971343994, 1.8949517011642456, 9.203927993774414, -7.957242965698242, -11.924708366394043, -4.677825927734375, 0.467041015625, 0.756103515625, -0.749267578125
421, 1148892924, 0.9819340705871582, 0.10429006814956665, -0.14867544174194336, 0.05315364524722099, 2.886430025100708, 1.7812626361846924, 9.361064910888672, -10.490618705749512, -9.541586875915527, -6.3642168045043945, 0.4775390625, 0.758056640625, -0.735595703125
422, 1148901257, 0.9818571209907532, 0.10389646142721176, -0.1496751606464386, 0.05253632366657257, 1.8375102281570435, 1.6037564277648926, 9.394880294799805, -7.566856861114502, -14.119569778442383, -6.239090919494629, 0.44189453125, 0.754638671875, -0.77392578125
423, 1148909590, 0.9817334413528442, 0.10370884835720062, -0.15082797408103943, 0.05191919952630997, 3.965893507003784, 1.927003026008606, 8.713444709777832, -5.016088485717773, -16.01138687133789, -6.41890287399292, 0.447998046875, 0.757080078125, -0.76171875
424, 1148917923, 0.9816830158233643, 0.10343869030475616, -0.15158602595329285, 0.051197946071624756, 3.1699414253234863, 1.8152086734771729, 9.07196044921875, -5.982206344604492, -11.039278030395508, -8.256930351257324, 0.4150390625, 0.749755859375, -0.801025390625
425, 1148926256, 0.9815930724143982, 0.10326030850410461, -0.15247751772403717, 0.05063300207257271, 2.652059555053711, 2.1098482608795166, 9.013237953186035, -4.643118858337402, -12.350518226623535, -6.130306243896484, 0.4208984375, 0.750732421875, -0.793212890625
426, 1148934589, 0.9815328121185303, 0.10307879745960236, -0.15318366885185242, 0.05003814771771431, 3.470193862915039, 1.6566123962402344, 8.789534568786621, -4.472707271575928, -10.241854667663574, -6.802066326141357, 0.38427734375, 0.742919921875, -0.830810546875
427, 1148942922, 0.9814837574958801, 0.10304569453001022, -0.15371528267860413, 0.04943130910396576, 3.2647223472595215, 1.839561939239502, 9.179275512695312, -2.5791995525360107, -7.567700386047363, -7.539191722869873, 0.380126953125, 0.740966796875, -0.82373046875
428, 1148951255, 0.9814501404762268, 0.10298949480056763, -0.1541469693183899, 0.04886901006102562, 2.9344184398651123, 1.9919042587280273, 9.224173545837402, -2.562473773956299, -6.521512985229492, -7.033668518066406, 0.334716796875, 0.72802734375, -0.864013671875
429, 1148959588, 0.9814032316207886, 0.10306434333324432, -0.15456439554691315, 0.048331134021282196, 3.33435320854187, 1.9138880968093872, 8.803153991699219, -0.9015443325042725, -5.9972662925720215, -7.000500202178955, 0.324951171875, 0.724365234375, -0.85595703125
430, 1148967921, 0.9814431071281433, 0.10310767590999603, -0.15471641719341278, 0.046921223402023315, 2.4757208824157715, 5.249828338623047, 9.504228591918945, -2.9381582736968994, -3.8588626384735107, -19.12848663330078, 0.270751953125, 0.705078125, -0.892822265625
431, 1148976254, 0.9815598726272583, 0.10220998525619507, -0.1551392674446106, 0.045013703405857086, 2.5553362369537354, -3.7035582065582275, 9.578714370727539, -17.172693252563477, -7.039770603179932, -23.514192581176758, 0.250732421875, 0.702880859375, -0.876953125
432, 1148984587, 0.9814848303794861, 0.10326158255338669, -0.15541410446166992, 0.043267447501420975, 2.978635549545288, 3.6825549602508545, 8.908514976501465, 10.034241676330566, -6.840644359588623, -25.57815933227539, 0.187744140625, 0.685546875, -0.908935546875
433, 1148992920, 0.9815462231636047, 0.10314370691776276, -0.15553554892539978, 0.04168841615319252, 4.500496864318848, 0.869228720664978, 8.632307052612305, -5.676910400390625, -3.1436359882354736, -21.131879806518555, 0.1669921875, 0.67822265625, -0.88037109375
434, 1149001253, 0.981602668762207, 0.10341406613588333, -0.15538856387138367, 0.04021047055721283, 2.9058620929718018, 1.5665161609649658, 9.167853355407715, 0.1220390722155571, -0.011500795371830463, -20.965412139892578, 0.1025390625, 0.658203125, -0.891357421875
435, 1149009586, 0.9815900325775146, 0.10385310649871826, -0.15544651448726654, 0.0391523502767086, 3.1807539463043213, 1.786054253578186, 8.695018768310547, 3.0929064750671387, -2.017864465713501, -15.340496063232422, 0.0830078125, 0.64990234375, -0.8544921875
436, 1149017919, 0.9816071391105652, 0.10411478579044342, -0.15532100200653076, 0.038521524518728256, 4.21270751953125, 3.156071901321411, 8.864091873168945, 1.8585304021835327, 0.8240996599197388, -9.46013069152832, 0.029541015625, 0.629150390625, -0.856689453125
437, 1149026252, 0.9816418290138245, 0.10415521264076233, -0.15513132512569427, 0.03828975558280945, 3.332239866256714, 1.9541552066802979, 9.138818740844727, -0.456496924161911, 2.8169896602630615, -3.7144997119903564, 0.024658203125, 0.623779296875, -0.81103515625
438, 1149034585, 0.981651246547699, 0.1042422503232956, -0.15496402978897095, 0.03848918899893761, 3.872356414794922, 2.3264806270599365, 8.782567024230957, 1.3059546947479248, 2.65375018119812, 2.064059257507324, -0.01806640625, 0.6064453125, -0.814208984375
439, 1149042918, 0.9816861152648926, 0.10417093336582184, -0.1546686440706253, 0.03897719457745552, 3.600309371948242, 2.1658129692077637, 8.86944580078125, -0.3790395259857178, 5.340607166290283, 6.089132308959961, -0.00927734375, 0.60009765625, -0.76025390625
440, 1149051251, 0.9816911220550537, 0.10421943664550781, -0.15440335869789124, 0.039764389395713806, 3.74479603767395, 2.1503095626831055, 9.060044288635254, 2.0948476791381836, 4.827553749084473, 9.943793296813965, -0.039306640625, 0.58349609375, -0.7646484375
441, 1149059584, 0.9817407131195068, 0.10408762842416763, -0.15394149720668793, 0.04066811874508858, 3.299907684326172, 1.9776393175125122, 8.9586763381958, -0.24220824241638184, 8.253536224365234, 11.582900047302246, -0.01904296875, 0.578857421875, -0.72265625
442, 1149067917, 0.9817298650741577, 0.10424768924713135, -0.15360227227210999, 0.04178714007139206, 3.13875675201416, 1.665547251701355, 9.045372009277344, 4.366138935089111, 6.2029876708984375, 14.090867042541504, -0.03955078125, 0.56494140625, -0.722412109375
443, 1149076250, 0.9817386269569397, 0.10438840091228485, -0.15315000712871552, 0.042875226587057114, 3.247476816177368, 1.7099218368530273, 9.143256187438965, 3.884002447128296, 8.152589797973633, 13.530708312988281, -0.01318359375, 0.560546875, -0.68115234375
444, 1149084583, 0.9817299842834473, 0.10465770959854126, -0.15271082520484924, 0.04396897181868553, 2.502305507659912, 1.775033712387085, 9.277067184448242, 5.8415703773498535, 7.457316875457764, 13.375486373901367, -0.03369140625, 0.540771484375, -0.6953125
445, 1149092916, 0.9816913604736328, 0.10497493296861649, -0.15241459012031555, 0.04508736729621887, 3.498885154724121, 1.8863025903701782, 9.019287109375, 6.309492111206055, 5.883271217346191, 13.818588256835938, -0.0068359375, 0.537353515625, -0.665283203125
446, 1149101249, 0.981701135635376, 0.1052224189043045, -0.1518763303756714, 0.04610280320048332, 2.8985414505004883, 1.324575662612915, 9.212847709655762, 5.419755458831787, 8.734314918518066, 12.21039867401123, -0.0283203125, 0.51806640625, -0.682861328125
447, 1149109582, 0.9816556572914124, 0.10565387457609177, -0.15155109763145447, 0.0471450500190258, 2.3582253456115723, 1.5565555095672607, 8.895332336425781, 7.720656394958496, 6.078169822692871, 12.516385078430176, 0.000732421875, 0.510498046875, -0.661376953125
448, 1149117915, 0.9816087484359741, 0.10610737651586533, -0.15122956037521362, 0.048126522451639175, 2.953369379043579, 1.3229401111602783, 7.7892374992370605, 8.074748039245605, 5.507330417633057, 11.670372009277344, -0.025634765625, 0.489990234375, -0.68017578125
449, 1149126248, 0.9815523624420166, 0.10655370354652405, -0.15093070268630981, 0.04921474680304527, 2.3239059448242188, 0.24758517742156982, 8.428661346435547, 8.019831657409668, 5.752689838409424, 13.14877700805664, -0.001220703125, 0.478759765625, -0.663818359375
450, 1149134581, 0.981429398059845, 0.10738091170787811, -0.15076927840709686, 0.0503496453166008, 1.8606518507003784, 2.270562171936035, 10.626803398132324, 13.441596984863281, 3.1609127521514893, 13.251131057739258, -0.031494140625, 0.45263671875, -0.68505859375
451, 1149142914, 0.9812951683998108, 0.10802475363016129, -0.1507689654827118, 0.051573172211647034, 3.660759925842285, 2.364974021911621, 10.430872917175293, 10.886373519897461, 1.6270294189453125, 15.055398941040039, -0.009765625, 0.447509765625, -0.66845703125
452, 1149151247, 0.9811553955078125, 0.10868510603904724, -0.15078166127204895, 0.05279563367366791, 3.6632332801818848, 0.828733503818512, 8.274861335754395, 11.275914192199707, 1.0211502313613892, 15.047893524169922, -0.04541015625, 0.4189453125, -0.69287109375
453, 1149159580, 0.9810209274291992, 0.109213687479496, -0.15089961886405945, 0.05385565012693405, 3.4668209552764893, 2.468257427215576, 9.465991973876953, 8.9080810546875, -0.13498704135417938, 13.263243675231934, -0.031005859375, 0.405517578125, -0.68212890625
