PacketCounter,SampleTimeFine,_Quat_W,_Quat_X,_Quat_Y,_Quat_Z,Acc_X,Acc_Y,Acc_Z,Gyr_X,Gyr_Y,Gyr_Z,Mag_X,Mag_Y,Mag_Z,
0,1145376398,0.151869416,0.470923632,-0.089844465,0.864346325,0,0,0,0,0,0,-1.223144531,-0.397460938,-0.514160156, 
1,1145384731,0.149667099,0.483340234,-0.091196015,0.857709229,9.867160797,0.459215522,4.445275307,17.20273972,-196.825058,4.880948067,-1.260253906,-0.421386719,-0.500488281, 
2,1145393064,0.147291332,0.495834827,-0.092416108,0.850830317,10.63300228,0.284727603,4.235543728,19.74798012,-199.1865997,5.458599091,-1.268066406,-0.451660156,-0.455078125, 
3,1145401397,0.144829243,0.508226156,-0.093326211,0.843813181,11.18065929,0.013372678,4.248822212,23.59409142,-198.5155334,4.206351757,-1.313476563,-0.478515625,-0.438476563, 
4,1145409730,0.142292783,0.520502448,-0.093795836,0.83667928,11.41012192,0.063742198,4.271653175,28.83732605,-197.1033173,1.910184264,-1.318359375,-0.51171875,-0.384277344, 
5,1145418063,0.13967818,0.532717347,-0.093982168,0.829378963,11.61919498,0.488988847,4.191120148,32.32948685,-197.244751,0.528990924,-1.361816406,-0.541503906,-0.359863281, 
6,1145426396,0.137084857,0.544772625,-0.094039336,0.821941078,12.11210442,0.891400397,4.017092705,33.14790726,-196.0452576,-0.716480732,-1.360839844,-0.575195313,-0.301757813, 
7,1145434729,0.134622455,0.556459725,-0.094042614,0.814484775,12.50277805,1.401648045,3.872179985,32.07323074,-191.8641205,-2.158430099,-1.400878906,-0.605957031,-0.270507813, 
8,1145443062,0.132458225,0.567734838,-0.094130792,0.807013869,12.29025745,1.855879903,3.827167511,28.04133415,-187.01828,-4.341211319,-1.390136719,-0.639160156,-0.200683594, 
9,1145451395,0.130682766,0.578793824,-0.094437763,0.799375594,12.19884396,1.956802487,3.71009922,21.98485184,-185.9346161,-6.975688457,-1.4296875,-0.670410156,-0.166015625, 
10,1145459728,0.129289061,0.589740813,-0.094948307,0.791501701,12.21590519,1.926101327,3.56429863,16.18445778,-186.3372498,-9.824463844,-1.413574219,-0.706054688,-0.094726563, 
11,1145468061,0.128262788,0.600642681,-0.095627502,0.78334707,12.48861885,1.6334759,3.487297058,10.93831348,-188.0556488,-12.90215492,-1.442871094,-0.73046875,-0.048828125, 
12,1145476394,0.127502233,0.611472428,-0.096359402,0.774957657,12.57440281,1.594469428,3.527501106,7.720489979,-188.8477936,-15.63755226,-1.411132813,-0.765625,0.025878906, 
13,1145484727,0.127000093,0.622337282,-0.097249299,0.766230881,12.51732159,1.790070891,3.718220711,3.497725964,-192.1069489,-17.71031761,-1.437988281,-0.791503906,0.078613281, 
14,1145493060,0.126801878,0.633272827,-0.098428823,0.757098734,13.20620918,1.916190147,3.844536781,-2.5887146,-196.3126373,-19.22652435,-1.390625,-0.819335938,0.156738281, 
15,1145501393,0.126984,0.643950343,-0.099819243,0.74782294,13.94546223,1.786959767,3.964857817,-8.727168083,-194.8384399,-21.26184273,-1.399414063,-0.840332031,0.208007813, 
16,1145509726,0.127642527,0.654258311,-0.10132882,0.738502502,14.13585567,1.562049508,4.324934006,-14.89972496,-190.8826599,-24.66170883,-1.330566406,-0.864746094,0.275878906, 
17,1145518059,0.128808305,0.664158285,-0.10297364,0.729176879,14.37387371,1.210751891,4.663085938,-21.53800201,-186.4206085,-28.05408478,-1.331054688,-0.882324219,0.327148438, 
18,1145526392,0.130374387,0.673606336,-0.104811437,0.7199108,14.65322685,0.971384525,5.097506523,-27.85202026,-181.021637,-29.53507996,-1.256835938,-0.901367188,0.384765625, 
19,1145534725,0.132448599,0.682503879,-0.106934637,0.710781813,14.94268703,0.366947532,5.564215183,-36.16790009,-174.1787262,-30.90558815,-1.251953125,-0.913574219,0.420410156, 
20,1145543058,0.13489598,0.690757334,-0.109257847,0.701940179,15.24705791,-0.673329592,6.02367115,-42.39121628,-164.9103241,-31.18015862,-1.169433594,-0.925292969,0.461914063, 
21,1145551391,0.13740404,0.698237836,-0.11172045,0.693615556,14.970438,-1.140872478,6.650800228,-44.95386124,-152.7933502,-28.34526062,-1.168945313,-0.931152344,0.484375, 
22,1145559724,0.139987379,0.705108464,-0.114426665,0.685661972,14.08165455,-1.362638354,7.341982365,-48.59772491,-143.6804962,-25.0619545,-1.090820313,-0.937988281,0.518066406, 
23,1145568057,0.142697126,0.711610436,-0.117319919,0.677852929,13.61152554,-1.647100091,7.775739193,-52.05528259,-139.0435486,-23.60649681,-1.08984375,-0.945800781,0.532714844, 
24,1145576390,0.145526037,0.717631042,-0.120316714,0.670337081,13.83122349,-1.647768617,8.258961678,-54.67351532,-131.6341248,-22.32920837,-1.016113281,-0.947265625,0.55078125, 
25,1145584723,0.148425117,0.722924769,-0.123391181,0.663418829,13.57396603,-1.899589062,8.991391182,-56.53089142,-119.1366043,-19.83369637,-1.0234375,-0.951660156,0.557617188, 
26,1145593056,0.151251286,0.727531135,-0.126404479,0.657148004,13.04116344,-2.263743877,9.754045486,-55.56254959,-106.3841858,-17.27054596,-0.955078125,-0.952636719,0.5703125, 
27,1145601389,0.153918341,0.731438041,-0.129158944,0.651632905,12.77317047,-2.211880922,10.47463894,-51.76316833,-92.28649902,-15.65398788,-0.970214844,-0.953613281,0.571777344, 
28,1145609722,0.156671375,0.734538257,-0.131519586,0.647000968,12.68318462,-2.516387701,10.9422617,-49.25295258,-75.16124725,-17.07040024,-0.909179688,-0.956542969,0.575195313, 
29,1145618055,0.159314528,0.73680383,-0.133241728,0.643417239,12.07590675,-3.225952625,11.1316185,-42.34780121,-55.99350739,-18.78605461,-0.931640625,-0.95703125,0.573730469, 
30,1145626388,0.161598966,0.738433361,-0.13432163,0.640749335,11.1734848,-3.864562988,10.93856049,-32.74000168,-40.33815384,-18.94119072,-0.884277344,-0.957519531,0.579101563, 
31,1145634721,0.163266703,0.739607811,-0.1348252,0.638863623,10.92034245,-4.54840374,10.10082722,-20.97299004,-28.24326706,-16.78677177,-0.908203125,-0.958496094,0.576171875, 
32,1145643054,0.163997203,0.74029696,-0.134780556,0.637886822,11.03074932,-4.311654091,8.985988617,-6.032154083,-15.26595783,-11.19442272,-0.85546875,-0.962402344,0.58203125, 
33,1145651387,0.164026409,0.740405083,-0.134306669,0.63785392,10.36467361,-3.815267324,7.704156399,5.3150177,-0.869270205,-6.202127934,-0.896484375,-0.962402344,0.579589844, 
34,1145659720,0.163498297,0.740187943,-0.133427382,0.638425529,9.331637383,-3.147189379,6.424384117,14.93531895,7.981360435,-3.488890409,-0.8515625,-0.960449219,0.581054688, 
35,1145668053,0.162536055,0.739881098,-0.132373348,0.639245808,9.008687973,-2.374563694,5.281056404,21.13619804,10.93929386,-0.720964193,-0.892578125,-0.958007813,0.579589844, 
36,1145676386,0.16126959,0.739435315,-0.131334573,0.640295982,9.090641022,-1.780778646,4.33421278,24.2165451,13.85394192,2.851263046,-0.854980469,-0.962890625,0.581054688, 
37,1145684719,0.159828991,0.738812685,-0.130306438,0.641584516,8.898609161,-1.415063858,3.698735476,25.92087173,17.55374527,5.366455555,-0.895507813,-0.960449219,0.583496094, 
38,1145693052,0.158201918,0.737869024,-0.12931408,0.64327234,11.78466797,-1.490834475,3.51561451,27.5216217,23.96241379,8.798743248,-0.857910156,-0.959960938,0.588378906, 
39,1145701385,0.156062603,0.7355299,-0.127546683,0.64681685,10.2534256,-2.211126804,3.846244335,39.82903671,55.98942947,12.01508713,-0.906738281,-0.958007813,0.585449219, 
40,1145709718,0.153774932,0.733013511,-0.125529468,0.650605142,7.509357929,-0.703297198,5.209692955,43.60382843,60.22974777,11.61026001,-0.879882813,-0.959960938,0.590332031, 
41,1145718051,0.151919901,0.730788946,-0.124061614,0.653816998,9.473327637,-0.571748734,6.496621132,33.94618607,51.47255707,11.58752251,-0.930175781,-0.959472656,0.583984375, 
42,1145726384,0.149080604,0.725307345,-0.121930778,0.660936415,18.70036316,-6.517985344,9.640063286,49.67989349,119.6445084,27.45713043,-0.901855469,-0.959960938,0.582519531, 
43,1145734717,0.141288161,0.715137124,-0.117563769,0.674385011,15.99384212,1.666651487,19.09624481,120.3948822,221.7643127,71.0489502,-0.975097656,-0.949707031,0.575683594, 
44,1145743050,0.136293083,0.705934167,-0.11644689,0.685216188,18.2834816,5.355735779,14.42723179,60.41514969,185.1502991,70.38225555,-0.981445313,-0.94140625,0.573730469, 
45,1145751383,0.134113938,0.699630678,-0.116715625,0.692031562,10.84419632,-0.499745637,-0.97224623,18.99437904,120.8575058,45.1642189,-1.060058594,-0.935058594,0.545410156, 
46,1145759716,0.131428719,0.69513768,-0.116318963,0.697122693,13.79177761,-1.038674116,-9.961087227,30.79130936,87.3135376,37.46121216,-1.046875,-0.931152344,0.542480469, 
47,1145768049,0.127750561,0.689714015,-0.114688814,0.703435004,14.7587328,-2.950686216,-7.879565239,52.35591507,108.6899414,38.91539764,-1.114746094,-0.927734375,0.521484375, 
48,1145776382,0.123413682,0.683838665,-0.11147096,0.71042788,9.647062302,-2.303137064,2.822403908,74.26057434,121.1362457,32.1102829,-1.104980469,-0.915039063,0.522460938, 
49,1145784715,0.119366027,0.678820074,-0.107860558,0.716464221,8.609729767,-2.533172131,6.379281521,75.34542847,105.0093918,22.68342781,-1.171386719,-0.9140625,0.502929688, 
50,1145793048,0.116026931,0.674782932,-0.104090914,0.72136718,9.25185585,-0.968574345,2.619550467,70.23913574,85.9524765,10.87040424,-1.157226563,-0.90234375,0.507324219, 
51,1145801381,0.113102101,0.67094481,-0.100569092,0.725897014,9.701565742,-0.165568575,-0.120265335,63.71127319,80.83070374,8.209144592,-1.219238281,-0.900878906,0.488769531, 
52,1145809714,0.110616744,0.666948736,-0.097359493,0.730386496,8.596507072,0.45225665,0.980049431,56.2665329,82.03101349,6.830774307,-1.201171875,-0.893554688,0.486816406, 
53,1145818047,0.109044023,0.663075805,-0.094990075,0.734449863,9.154842377,0.37198016,1.712518215,39.04502106,76.95623016,4.584888458,-1.262207031,-0.890625,0.460449219, 
54,1145826380,0.108137578,0.659044504,-0.093283027,0.738420427,8.879277229,0.112748325,1.62311554,25.93800545,77.45959473,3.935995579,-1.247070313,-0.887207031,0.451171875, 
55,1145834713,0.107521854,0.65530479,-0.092156515,0.741971493,8.737937927,1.403606415,1.294112444,17.28629494,70.33507538,5.27444315,-1.30859375,-0.877929688,0.417480469, 
56,1145843046,0.107089132,0.651980579,-0.091531679,0.745033741,9.479186058,0.724008799,0.607278407,10.53846264,61.05118942,6.653538227,-1.292480469,-0.876953125,0.406738281, 
57,1145851379,0.106238708,0.648598552,-0.090885863,0.748179853,9.364228249,0.544246733,1.148503184,14.49485493,62.02721786,10.96591759,-1.352539063,-0.874511719,0.374023438, 
58,1145859712,0.104823604,0.645641208,-0.090025917,0.75103581,8.483506203,1.097595334,1.437110305,22.00821877,54.55495071,13.88950443,-1.342285156,-0.869140625,0.359375, 
59,1145868045,0.10316924,0.642982602,-0.089407966,0.753615081,9.757799149,1.481105804,2.257457018,21.70485497,48.49431992,17.76161194,-1.402832031,-0.856933594,0.327148438, 
60,1145876378,0.10170272,0.64043963,-0.089306965,0.755988002,9.383545876,1.402128458,3.489442587,14.62812901,44.84054565,19.93233871,-1.389160156,-0.850097656,0.312011719, 
61,1145884711,0.100713283,0.638245523,-0.089609519,0.75793767,9.895359039,0.133273721,2.99031496,6.167495251,37.63468933,17.52422523,-1.442871094,-0.843261719,0.2734375, 
62,1145893044,0.100093395,0.636153042,-0.090019703,0.759728432,8.410611153,-0.531261146,2.65432477,1.765194297,35.36168671,14.25809288,-1.423339844,-0.829589844,0.250976563, 
63,1145901377,0.09992864,0.63472724,-0.090209506,0.760919273,8.791489601,-1.131950259,1.104001403,0.242323592,24.13862228,5.938112259,-1.46875,-0.815429688,0.204589844, 
64,1145909710,0.100070201,0.633050561,-0.090360984,0.76227802,8.690584183,-1.040017366,1.997657299,-2.1362288,28.53608513,2.926594973,-1.444335938,-0.809082031,0.184082031, 
65,1145918043,0.100615181,0.631820858,-0.090408087,0.763220251,8.371621132,-1.555469632,1.157181263,-4.486181259,20.99654579,-3.324114323,-1.482910156,-0.800292969,0.135253906, 
66,1145926376,0.101267606,0.63045913,-0.09031374,0.764270604,10.05952549,-0.406034559,2.41324091,-3.962652206,23.52503395,-5.384908676,-1.455078125,-0.79296875,0.112792969, 
67,1145934709,0.10215579,0.629013181,-0.090401471,0.765332639,9.588541031,-0.496656895,3.885185003,-8.044179916,24.6766777,-6.146318436,-1.487792969,-0.778320313,0.070800781, 
68,1145943042,0.103332303,0.627920806,-0.090506896,0.766058981,10.66677952,-0.504659891,1.919246316,-10.62873363,18.26209641,-9.957946777,-1.446777344,-0.773925781,0.046386719, 
69,1145951375,0.104507543,0.626611769,-0.090571336,0.766963243,11.04683304,-0.21085608,2.283797264,-10.28801441,22.25751495,-9.757313728,-1.46875,-0.762207031,0.005371094, 
70,1145959708,0.105726279,0.625238955,-0.090698257,0.767901123,9.94085598,-0.233404353,2.794443607,-11.34797192,23.06481552,-9.573236465,-1.424804688,-0.755371094,-0.013671875, 
71,1145968041,0.106906019,0.624025583,-0.09090735,0.768699586,10.11355591,0.500946105,2.372740269,-11.8473587,20.13542747,-8.83204937,-1.444335938,-0.735351563,-0.056640625, 
72,1145976374,0.108015142,0.622754872,-0.091242217,0.769534707,9.649503708,0.045038532,2.517943621,-12.58036137,20.66020966,-6.901733875,-1.399902344,-0.729492188,-0.064941406, 
73,1145984707,0.109047294,0.621603727,-0.091588505,0.770278335,9.472145081,-0.004451889,2.357610941,-12.0080862,18.62338829,-6.255869865,-1.418945313,-0.713378906,-0.102050781, 
74,1145993040,0.109916434,0.620517075,-0.091928072,0.770990252,9.796392441,0.289149106,2.531674623,-10.47223091,17.34697914,-4.733614922,-1.372558594,-0.705078125,-0.106445313, 
75,1146001373,0.110599317,0.619452477,-0.09239044,0.771692991,9.434990883,0.25094223,2.164978027,-10.17640877,16.74009514,-1.733904719,-1.393554688,-0.684082031,-0.142578125, 
76,1146009706,0.111087397,0.618454337,-0.092933595,0.772358,9.399866104,0.469672024,1.881850958,-9.300581932,15.21879196,0.863904297,-1.351074219,-0.672851563,-0.139648438, 
77,1146018039,0.111388549,0.617452502,-0.09360487,0.773034811,9.450971603,0.384198725,2.6056633,-9.0838871,15.04697323,3.977751017,-1.373535156,-0.653320313,-0.166992188, 
78,1146026372,0.11163605,0.61658746,-0.094410084,0.773591638,9.828962326,-0.34669894,1.938745141,-9.970575333,12.17679405,5.306131363,-1.334960938,-0.642089844,-0.165527344, 
79,1146034705,0.111675136,0.615652442,-0.09516605,0.774237871,10.13576126,0.194876492,2.560146093,-7.696977139,13.60734749,7.35381031,-1.359863281,-0.619628906,-0.192382813, 
80,1146043038,0.11172688,0.614792407,-0.096037418,0.774805903,9.762076378,-0.132902101,2.514196873,-9.005581856,11.86688519,7.957742691,-1.326660156,-0.604003906,-0.189453125, 
81,1146051371,0.111774884,0.613911688,-0.096933089,0.775385559,10.04662228,-0.553935051,2.200323343,-9.26313591,12.26129532,8.266932487,-1.354003906,-0.583007813,-0.219726563, 
82,1146059704,0.111790217,0.61301887,-0.097716771,0.775991201,9.909846306,-0.645963669,1.969752789,-7.751945496,12.62196922,7.709823608,-1.321289063,-0.568847656,-0.2109375, 
83,1146068037,0.111729287,0.612076044,-0.098398767,0.77665776,9.193843842,-0.317179441,2.276784658,-6.044653416,13.84197521,7.844963074,-1.347167969,-0.545410156,-0.241699219, 
84,1146076370,0.111594833,0.611119926,-0.09905237,0.777346492,9.224739075,-0.058014814,2.680968285,-5.09083128,13.99356174,8.423744202,-1.314941406,-0.52734375,-0.239257813, 
85,1146084703,0.111458078,0.610265195,-0.099820606,0.777939081,9.314367294,0.055167492,2.222380877,-6.293879509,12.04328918,9.144910812,-1.3359375,-0.5078125,-0.26953125, 
86,1146093036,0.111237094,0.609329283,-0.100632258,0.77859956,9.72678566,0.227334172,2.784965992,-6.070498466,13.17887402,10.60279751,-1.307617188,-0.491699219,-0.264160156, 
87,1146101369,0.111040518,0.60835743,-0.101574115,0.779265165,9.744998932,0.179943249,2.859209061,-7.729969501,13.56062889,11.51353836,-1.326660156,-0.464355469,-0.30078125, 
88,1146109702,0.110923812,0.607407212,-0.102675304,0.779878259,10.25044441,0.087078854,2.585369825,-10.12595081,12.64089966,11.8599968,-1.294921875,-0.446289063,-0.292480469, 
89,1146118035,0.11084155,0.606301427,-0.10383103,0.780597031,10.46229649,-0.083939455,2.741302013,-11.10707951,15.27440357,12.34579849,-1.313964844,-0.425292969,-0.329589844, 
90,1146126368,0.110892683,0.605090678,-0.105058305,0.781364799,10.49872494,0.395214409,2.184463978,-13.06019306,16.77498817,11.71758366,-1.283691406,-0.41015625,-0.326660156, 
91,1146134701,0.111112222,0.603717268,-0.106401466,0.782213807,10.56965828,-0.224162504,2.22689867,-15.85373688,19.38159943,11.24981785,-1.292480469,-0.383300781,-0.360839844, 
92,1146143034,0.111456409,0.602217793,-0.107652977,0.783148944,10.34772682,-0.809490323,2.196118593,-15.95273304,21.65949821,9.446881294,-1.265136719,-0.368164063,-0.353515625, 
93,1146151367,0.111881897,0.600560963,-0.108703777,0.784214735,10.36430359,-0.773938358,2.739208937,-14.52853489,24.98128891,7.359705448,-1.270019531,-0.342773438,-0.385742188, 
94,1146159700,0.112445571,0.598796308,-0.109599538,0.785357893,10.28963184,-0.577713132,2.911916256,-14.02918434,27.1113472,4.853684425,-1.239257813,-0.329101563,-0.379394531, 
95,1146168033,0.113198332,0.596911967,-0.109450355,0.786703825,10.43350029,2.453201056,2.393817186,-4.198816776,32.08947372,-5.28399086,-1.239257813,-0.3046875,-0.405761719, 
96,1146176366,0.117215089,0.595374763,-0.107259177,0.787581742,8.191707611,7.239911556,3.241873026,-9.043680191,32.47156143,-58.62448502,-1.202148438,-0.297363281,-0.395996094, 
97,1146184699,0.119881272,0.593678117,-0.110587813,0.788000703,15.62528133,-4.904363632,2.047679186,-58.72290802,19.66217995,0.708018303,-1.197753906,-0.274414063,-0.424316406, 
98,1146193032,0.121165276,0.590793729,-0.110133745,0.790033042,5.296256542,1.894107342,3.310460091,-5.958524227,49.7296257,-10.73881721,-1.174316406,-0.260253906,-0.413574219, 
99,1146201365,0.123429403,0.588637292,-0.112001903,0.791029036,13.30845833,-1.285899162,2.563820839,-39.50287247,31.12665176,-5.342936039,-1.170410156,-0.236328125,-0.432617188, 
100,1146209698,0.124628901,0.585651517,-0.113447659,0.792848945,8.682024002,-1.579059005,2.285839558,-26.42307091,45.78385544,5.48692894,-1.138671875,-0.220214844,-0.424804688, 
101,1146218031,0.126195773,0.582944572,-0.114910372,0.794383883,11.28418159,-2.784788847,2.116637707,-29.53884125,41.10462952,0.702612877,-1.144042969,-0.200195313,-0.442871094, 
102,1146226364,0.126985669,0.579796553,-0.116188154,0.796373546,10.1367836,-2.667162657,2.861911058,-21.32997513,48.55179214,9.174491882,-1.118652344,-0.182617188,-0.4296875, 
103,1146234697,0.127840161,0.576683462,-0.117209285,0.798345268,10.44401836,-2.458820581,1.941783905,-19.00801277,48.68664932,6.354716301,-1.115722656,-0.161132813,-0.447753906, 
104,1146243030,0.128441349,0.57343936,-0.118033566,0.800461292,10.45441246,-2.439503431,1.995997906,-14.81451702,51.10164261,8.021745682,-1.09375,-0.147949219,-0.438964844, 
105,1146251363,0.128820121,0.570033669,-0.118569985,0.802750349,10.25708866,-2.045811176,2.645880699,-9.917602539,54.49793243,8.785464287,-1.09375,-0.126464844,-0.456054688, 
106,1146259696,0.129085809,0.566578448,-0.118939854,0.805095673,10.71026993,-2.222223997,3.619983435,-7.176333904,55.49386597,8.881259918,-1.072753906,-0.112792969,-0.446777344, 
107,1146268029,0.129161194,0.562940359,-0.119207539,0.807592034,10.77652836,-1.37736392,2.724409103,-4.653352737,58.667202,10.78650856,-1.072265625,-0.087402344,-0.461914063, 
108,1146276362,0.129187658,0.559222341,-0.119354479,0.810145199,10.7170763,-0.801260114,3.347707033,-2.957685471,60.03160477,10.59932137,-1.052246094,-0.078125,-0.447265625, 
109,1146284695,0.129307643,0.555227995,-0.11942973,0.812857866,10.69307804,-0.56280309,3.483792305,-3.130762577,64.71318054,9.770112991,-1.05859375,-0.059082031,-0.462402344, 
110,1146293028,0.129526511,0.551181018,-0.11957933,0.815550864,10.48430443,-0.808970392,2.840902567,-4.81627512,65.08950043,9.254713058,-1.041503906,-0.046875,-0.450195313, 
111,1146301361,0.129699841,0.546940029,-0.119546957,0.818378329,10.55119419,-1.38185823,4.383780479,-2.582220078,68.62955475,8.975136757,-1.041992188,-0.030273438,-0.463378906, 
112,1146309694,0.129819408,0.542496204,-0.119441546,0.821327329,10.43656826,-1.692410111,3.66155076,-1.492625117,71.77376556,9.555805206,-1.022949219,-0.01953125,-0.456054688, 
113,1146318027,0.129868701,0.538082421,-0.119304404,0.824237943,10.07330608,-1.692656279,2.907566309,-0.6439448,71.18270111,10.01947498,-1.024414063,-0.001464844,-0.470703125, 
114,1146326360,0.129838616,0.533436477,-0.118921176,0.827312112,10.42870426,-1.991577864,3.773991585,2.612024784,75.23865509,9.741705894,-1.009277344,0.010253906,-0.4609375, 
115,1146334693,0.129754663,0.528665483,-0.118446849,0.830449879,10.21851635,-1.792194486,3.243808508,3.897982597,77.2975769,10.03400707,-1.009277344,0.025878906,-0.472167969, 
116,1146343026,0.129664361,0.523872793,-0.117863476,0.83357805,10.46377754,-1.628917694,3.200521231,5.166584969,77.56729126,9.303023338,-0.990722656,0.0390625,-0.467285156, 
117,1146351359,0.129508942,0.518864214,-0.117129326,0.836832106,10.72040367,-1.64722836,3.752973318,7.151792526,81.20600891,9.565872192,-0.990722656,0.052246094,-0.483886719, 
118,1146359692,0.129335418,0.513663709,-0.116213322,0.840188205,11.03043365,-1.290366411,3.987720013,9.236807823,84.34739685,8.940397263,-0.975097656,0.060546875,-0.475585938, 
119,1146368025,0.129325449,0.508274436,-0.115216784,0.843597651,11.3022995,-0.69210124,3.776212215,8.721464157,87.39897156,6.905043602,-0.9765625,0.072265625,-0.489257813, 
120,1146376358,0.129299641,0.502599776,-0.11417561,0.847135723,11.66413784,-0.843119919,3.954279184,9.086398125,91.57852936,7.42901659,-0.958496094,0.081542969,-0.482910156, 
121,1146384691,0.129281566,0.496426463,-0.113096461,0.850914955,12.51439953,-0.285051972,4.106853008,8.926600456,99.2181778,8.317232132,-0.959472656,0.093261719,-0.500976563, 
122,1146393024,0.129376233,0.489825934,-0.112033248,0.854857206,12.73983669,0.483549625,3.933059216,7.501599312,105.3974762,8.030768394,-0.947265625,0.1015625,-0.495605469, 
123,1146401357,0.129696518,0.482652158,-0.111104168,0.859000325,12.70217228,0.818097591,3.334284782,3.656794071,113.6789551,7.553173542,-0.940429688,0.11328125,-0.512207031, 
124,1146409690,0.130444616,0.474924117,-0.110204391,0.863299668,14.11641121,-0.34369424,1.995023251,-0.247487992,121.7940903,3.788356304,-0.926757813,0.115234375,-0.5078125, 
125,1146418023,0.131072938,0.466845453,-0.108855531,0.867770433,15.2843647,0.209206298,2.840875387,5.467872143,127.7709808,3.147547722,-0.926757813,0.125976563,-0.526367188, 
126,1146426356,0.131537303,0.458168119,-0.107386835,0.872495294,17.52672386,0.946015775,6.142152309,7.288625717,136.4603729,5.668190956,-0.904785156,0.127441406,-0.51953125, 
127,1146434689,0.132583871,0.448256284,-0.106149659,0.877621889,18.44898415,3.244879007,3.528412342,-0.835169673,154.3007507,2.712104797,-0.905273438,0.133789063,-0.5390625, 
128,1146443022,0.134713396,0.437335014,-0.105344303,0.882888913,16.70524025,5.348762989,1.843420029,-14.33180523,168.1048431,-5.985453129,-0.891113281,0.12890625,-0.536621094, 
129,1146451355,0.137962386,0.425951362,-0.104921438,0.887988269,17.83609009,3.900881052,3.43185401,-26.83313179,173.6630707,-16.90011978,-0.891113281,0.135742188,-0.558105469, 
130,1146459688,0.142119706,0.413484663,-0.104402579,0.893270791,20.93818855,3.678064823,2.048630953,-32.74128723,189.4378052,-26.63816071,-0.874023438,0.132324219,-0.552246094, 
131,1146468021,0.147267237,0.399434477,-0.103969894,0.898863018,20.49360085,4.938547134,-0.668450415,-42.11445236,211.92453,-35.43910217,-0.871582031,0.134277344,-0.580078125, 
132,1146476354,0.153388917,0.384028584,-0.103979252,0.904534161,19.35765457,5.17416954,0.391154259,-55.56971741,229.6283722,-42.96031189,-0.854492188,0.124511719,-0.580078125, 
133,1146484687,0.160176411,0.367551118,-0.104675621,0.910105884,19.41627121,2.623585463,5.336887836,-70.02826691,241.9250031,-46.28611755,-0.850097656,0.116699219,-0.607910156, 
134,1146493020,0.166893199,0.349612981,-0.105542138,0.915848315,20.10415077,-1.89699924,14.74469471,-74.78230286,260.6445923,-42.04590225,-0.830566406,0.110351563,-0.613769531, 
135,1146501353,0.172639057,0.331008136,-0.104479454,0.921798885,21.44026375,-2.138860941,10.68004131,-47.03356552,273.0127258,-37.66445923,-0.819824219,0.105957031,-0.645019531, 
136,1146509686,0.177170858,0.310684502,-0.10432899,0.928009152,19.05467224,5.152187824,1.409321785,-56.79673767,292.1470032,-15.01583958,-0.8046875,0.095703125,-0.653808594, 
137,1146518019,0.179893389,0.291319132,-0.105320461,0.933637559,10.97172832,4.568907261,-3.062104464,-62.12344742,271.9804688,10.14251137,-0.796386719,0.096679688,-0.684570313, 
138,1146526352,0.182564571,0.274828047,-0.10728769,0.937885344,12.9428215,2.600389242,-3.753986835,-69.3647995,227.1544952,7.13933754,-0.783691406,0.087890625,-0.690429688, 
139,1146534685,0.184480861,0.25852257,-0.10748852,0.942114115,12.9305191,-0.130790591,-4.454561234,-43.2576561,227.9056091,9.871925354,-0.776367188,0.081054688,-0.716796875, 
140,1146543018,0.184602857,0.243719742,-0.105708294,0.946228325,8.003614426,2.714197636,-4.500408649,-7.615233421,210.5426331,23.57730865,-0.768066406,0.067382813,-0.724121094, 
141,1146551351,0.184687048,0.231836423,-0.104768381,0.949297607,5.189277649,6.15816021,-5.30934906,-12.48331928,166.7173309,19.97432518,-0.759277344,0.059082031,-0.747070313, 
142,1146559684,0.18632856,0.222543404,-0.107149035,0.950933814,3.976295948,4.394049168,-4.673286915,-56.33086777,122.3175964,2.876934767,-0.753417969,0.053222656,-0.748046875, 
143,1146568017,0.188923568,0.216360047,-0.111403659,0.951359689,4.607473373,-4.131086826,-6.335142136,-77.52157593,74.37599945,-11.55956459,-0.750976563,0.049804688,-0.766601563, 
144,1146576350,0.188589707,0.213334873,-0.111681595,0.952076316,5.177559853,-6.756823063,-6.466953278,-8.197463989,39.96222305,10.86789322,-0.754882813,0.040527344,-0.765136719, 
145,1146584683,0.187141553,0.212724328,-0.109872505,0.952709019,2.860399485,-3.184208393,-4.515233994,28.59515762,11.60806179,15.38439655,-0.763183594,0.032714844,-0.782226563, 
146,1146593016,0.18627125,0.215194106,-0.106998675,0.952651918,4.312814713,-3.205499649,-4.512313843,47.70337296,-26.93715477,-1.700303078,-0.772460938,0.015625,-0.76953125, 
147,1146601349,0.185570836,0.218452945,-0.102569222,0.952534199,6.000283241,-0.213081613,-3.934668779,69.54858398,-33.43479919,-9.875619888,-0.780273438,0.002441406,-0.784179688, 
148,1146609682,0.185348049,0.22185652,-0.098086752,0.952262938,3.751806259,0.492151886,-3.041542292,68.93296814,-34.748703,-16.86387634,-0.788085938,-0.018554688,-0.76953125, 
149,1146618015,0.185332522,0.226546422,-0.093661569,0.951607108,3.575348854,0.446026772,-2.563795328,70.33744049,-52.86678314,-22.14223099,-0.794433594,-0.032226563,-0.780761719, 
150,1146626348,0.185057968,0.231670097,-0.089287542,0.950847149,4.637095928,2.11372757,-2.283682346,71.41462708,-59.08238602,-19.4094944,-0.804199219,-0.053710938,-0.763183594, 
151,1146634681,0.184809744,0.236667916,-0.085773975,0.94998765,2.510947466,2.665033102,-1.679069281,59.66977692,-60.16028595,-17.11911774,-0.814941406,-0.070800781,-0.775878906, 
152,1146643014,0.184617952,0.242971793,-0.083567619,0.94862932,0.934374452,2.313033581,-1.361436963,45.10803223,-81.83714294,-16.39362144,-0.828125,-0.090820313,-0.7578125, 
153,1146651347,0.18423824,0.250731826,-0.082573101,0.946769059,1.478371143,2.229847908,-1.249402404,33.079422,-106.067955,-12.85602951,-0.84375,-0.1015625,-0.763183594, 
154,1146659680,0.183808342,0.259579241,-0.082815431,0.94444418,2.038364887,1.648711324,-1.147254586,19.32722473,-124.7476273,-10.33733463,-0.855957031,-0.115722656,-0.748046875, 
155,1146668013,0.183364466,0.26930818,-0.083918877,0.941705048,2.657620668,0.612165809,-0.944731355,9.998959541,-140.1388245,-9.146232605,-0.879394531,-0.12890625,-0.756835938, 
156,1146676346,0.182831392,0.279748619,-0.085573636,0.938610911,2.951836586,0.089135014,-0.664179623,4.521453381,-151.8834991,-7.652332306,-0.898925781,-0.146972656,-0.736816406, 
157,1146684679,0.18219994,0.290940136,-0.087671839,0.935131252,2.834304571,-0.349262536,-0.345137805,0.663309216,-164.5701294,-6.542543888,-0.922363281,-0.15625,-0.740234375, 
158,1146693012,0.181525365,0.303038865,-0.090132996,0.931177735,3.041717291,-0.136447623,-0.181252867,-2.187081814,-178.8096771,-6.805894852,-0.943847656,-0.174316406,-0.717285156, 
159,1146701345,0.180895105,0.315956712,-0.093127407,0.926701427,3.347569466,-0.522775352,0.019208871,-7.747383118,-193.0408783,-7.48367548,-0.971191406,-0.186035156,-0.72265625, 
160,1146709678,0.180035532,0.329808205,-0.096174262,0.92171818,4.075737953,-1.225216389,0.235023171,-5.796003819,-207.2739563,-6.773582458,-0.989746094,-0.205566406,-0.691894531, 
161,1146718011,0.179147318,0.344236225,-0.099116646,0.916288078,5.005547523,-0.911262393,0.471593112,-3.455260277,-216.6808167,-8.769896507,-1.023925781,-0.221679688,-0.689453125, 
162,1146726344,0.178471282,0.359104663,-0.101922013,0.910386562,5.426241398,-1.216214538,0.588244081,-2.338426828,-223.5373077,-13.83291245,-1.05078125,-0.242675781,-0.653808594, 
163,1146734677,0.177842245,0.374353737,-0.104391366,0.904065192,5.768455029,-1.098632216,0.870483041,2.030407667,-229.7861481,-17.66490555,-1.086914063,-0.262695313,-0.648925781, 
164,1146743010,0.177089483,0.390138,-0.106620759,0.897253275,6.029548168,-1.212099552,1.170307755,6.213378429,-238.2517242,-19.30973816,-1.105957031,-0.291015625,-0.610351563, 
165,1146751343,0.176006064,0.406412482,-0.108591825,0.889976621,7.04868269,-0.997500956,1.329157829,11.72984123,-246.9526978,-18.48538208,-1.144042969,-0.317871094,-0.599609375, 
166,1146759676,0.174712867,0.42295748,-0.110324055,0.882275999,7.786613941,-1.05319953,1.558332682,15.80148029,-252.0628357,-18.66399384,-1.160644531,-0.350097656,-0.546875, 
167,1146768009,0.173186079,0.439737588,-0.111683108,0.874164879,8.528548241,-1.197433352,1.773892403,21.67549515,-257.0707397,-19.36558342,-1.203613281,-0.379394531,-0.527832031, 
168,1146776342,0.171309993,0.456704021,-0.112648889,0.865669787,9.221306801,-0.999969363,1.811570644,28.32807541,-260.9142761,-18.7173233,-1.216796875,-0.416503906,-0.474609375, 
169,1146784675,0.169132128,0.473794401,-0.113289706,0.856783688,9.954162598,-1.164471388,1.90716362,33.82025528,-264.8659363,-18.30669022,-1.262207031,-0.449707031,-0.442871094, 
170,1146793008,0.166653946,0.491003901,-0.113479897,0.847504497,10.90008068,-1.140952349,2.211275339,40.70796204,-267.9293823,-18.78650665,-1.268554688,-0.488769531,-0.376953125, 
171,1146801341,0.16389972,0.508184731,-0.113249719,0.837890029,11.81033516,-1.057709575,2.614084721,46.925457,-269.6468811,-19.1491909,-1.307128906,-0.524902344,-0.333984375, 
172,1146809674,0.160806328,0.525316596,-0.112610184,0.827950716,12.65877533,-0.708444476,2.98242116,53.36202621,-270.6328125,-18.7431736,-1.308105469,-0.568847656,-0.253417969, 
173,1146818007,0.157471672,0.542278945,-0.111743242,0.817709804,13.5606432,-0.043284032,3.363020897,56.88758087,-271.0804443,-18.0575943,-1.345214844,-0.610839844,-0.200683594, 
174,1146826340,0.154065549,0.558938146,-0.11075075,0.807208657,14.52204418,0.4836317,3.684818268,57.73694229,-269.1205139,-18.27787971,-1.326660156,-0.650878906,-0.107910156, 
175,1146834673,0.1507743,0.575139821,-0.109688431,0.796523452,15.03184891,0.96057266,4.129235268,56.41761017,-265.4614868,-19.79184723,-1.354492188,-0.685546875,-0.039550781, 
176,1146843006,0.147686958,0.590885758,-0.108691886,0.78563875,15.74206829,1.278404832,4.534598351,52.80837631,-261.5474243,-21.22150421,-1.315429688,-0.723632813,0.058105469, 
177,1146851339,0.144833654,0.605984986,-0.107776426,0.774718881,15.89541245,1.370089889,5.041036129,48.69525528,-254.9895935,-22.20702744,-1.326660156,-0.755371094,0.124511719, 
178,1146859672,0.142328441,0.620710194,-0.107027851,0.763548493,15.79808617,1.655413628,5.663606167,42.86245728,-252.5870667,-24.45838547,-1.261230469,-0.779785156,0.216796875, 
179,1146868005,0.140230671,0.635174334,-0.106605545,0.752013266,16.42387199,1.637096286,5.940690994,34.94724655,-253.319046,-26.29213905,-1.258300781,-0.799804688,0.283203125, 
180,1146876338,0.138508856,0.649328589,-0.106592238,0.740152478,17.23957253,1.350433588,6.047297955,26.31467438,-252.8896942,-26.76851845,-1.180664063,-0.815917969,0.364257813, 
181,1146884671,0.1370897,0.663053751,-0.106896162,0.728106558,18.09501266,0.876318038,6.067155361,19.33697701,-250.6418762,-26.75306129,-1.170410156,-0.827148438,0.41796875, 
182,1146893004,0.135763109,0.676275969,-0.107404746,0.716019094,18.77290344,1.445392728,6.332400322,15.39817715,-245.9471436,-25.13222504,-1.087402344,-0.836914063,0.481933594, 
183,1146901337,0.134976864,0.688829303,-0.108445488,0.703942597,18.49374962,2.553108215,7.636887074,3.937301397,-239.7373199,-24.51323128,-1.080566406,-0.838378906,0.526367188, 
184,1146909670,0.135354906,0.70072192,-0.110192202,0.691755414,18.54448318,2.920591354,8.793151855,-15.36276245,-233.7032318,-28.29615021,-0.9921875,-0.841308594,0.575195313, 
185,1146918003,0.137034774,0.711635292,-0.112687439,0.679778099,18.84792328,2.615397453,10.11431408,-36.4883461,-222.0468445,-31.61501694,-0.98046875,-0.840332031,0.603515625, 
186,1146926336,0.139814019,0.721379638,-0.115992747,0.668287992,18.56641197,1.695812345,11.35711384,-56.30752182,-205.9439392,-31.20074844,-0.895996094,-0.8359375,0.636230469, 
187,1146934669,0.143167198,0.729925752,-0.119795181,0.657541156,17.28066635,1.411979675,12.83450031,-67.64810181,-187.8264618,-28.23729897,-0.892578125,-0.835449219,0.64453125, 
188,1146943002,0.147366375,0.737457275,-0.124068223,0.64733839,15.98301506,1.749071598,14.40574741,-81.52548218,-172.5370331,-28.38150215,-0.8046875,-0.83203125,0.663574219, 
189,1146951335,0.152602673,0.743845761,-0.128461361,0.637889922,15.80861092,1.699627161,15.97033119,-94.11319733,-153.3718109,-32.95585632,-0.81640625,-0.838867188,0.666503906, 
190,1146959668,0.15908514,0.748718321,-0.132819608,0.629659772,14.92508125,0.085542828,17.9940834,-107.6032333,-125.2036133,-38.96595001,-0.735351563,-0.8359375,0.665527344, 
191,1146968001,0.166541681,0.75224179,-0.136698604,0.62266326,13.86630726,-4.407051086,19.68928719,-114.160347,-98.12259674,-47.21536255,-0.747070313,-0.848144531,0.65625, 
192,1146976334,0.173588395,0.754659057,-0.139643699,0.617135644,13.94092274,-9.906822205,20.70866394,-101.7078018,-72.02082062,-47.87572479,-0.676269531,-0.852539063,0.651367188, 
193,1146984667,0.178222969,0.755820394,-0.141500786,0.613962233,14.436203,-12.7304678,20.96790123,-65.90533447,-39.03092194,-30.71157455,-0.703613281,-0.860839844,0.641113281, 
194,1146993000,0.179930106,0.755613148,-0.142424718,0.613505542,13.47951221,-12.38676739,20.48341751,-25.66952705,-2.653918266,-6.35148859,-0.650878906,-0.861328125,0.640136719, 
195,1147001333,0.179397613,0.754434109,-0.142118156,0.615181446,11.86236572,-10.1470089,18.71901512,9.757660866,26.36847878,6.915810585,-0.69921875,-0.866210938,0.634765625, 
196,1147009666,0.177603066,0.752585649,-0.140604883,0.618306041,10.75191116,-7.842226505,16.30074692,34.25421143,47.49886703,9.927097321,-0.657226563,-0.860351563,0.640136719, 
197,1147017999,0.174866959,0.750323474,-0.138180882,0.622368515,10.57808113,-5.381134033,13.6843853,52.53104019,61.19879532,11.62535667,-0.71875,-0.861816406,0.638671875, 
198,1147026332,0.171525553,0.747567713,-0.135398477,0.627207041,10.51436234,-3.191351891,11.06941986,62.16404724,73.01914215,15.85486889,-0.686035156,-0.852539063,0.645507813, 
199,1147034665,0.167701691,0.744484127,-0.132657826,0.632472396,12.3059864,-1.985986471,8.925600052,66.75294495,79.36121368,22.12076569,-0.753417969,-0.854003906,0.648925781, 
200,1147042998,0.16191949,0.738734722,-0.129890636,0.641234338,14.06778431,-4.856395721,6.124747276,87.2952652,134.6721497,51.74008942,-0.733398438,-0.843261719,0.650390625, 
201,1147051331,0.156243503,0.733809412,-0.126486748,0.648931861,1.375977755,0.934758842,7.239737988,91.73344421,118.3638229,40.56267548,-0.806640625,-0.840332031,0.648925781, 
202,1147059664,0.151377901,0.728568017,-0.124511585,0.656330705,15.44799042,-6.126375675,2.801527023,69.64713287,116.3200912,47.58488083,-0.790527344,-0.831054688,0.647949219, 
203,1147067997,0.143964201,0.722598135,-0.117831089,0.665764093,22.55112076,1.289875984,-8.636925697,139.5766449,148.9050446,28.99570084,-0.860839844,-0.822265625,0.642578125, 
204,1147076330,0.140275627,0.715512335,-0.115645401,0.674530089,29.88578987,15.56970119,-19.23706245,58.15325546,149.4234772,39.96840286,-0.838378906,-0.815917969,0.650878906, 
205,1147084663,0.135269254,0.70419395,-0.115586281,0.687352002,7.299965858,-7.171571732,-5.118917465,49.6408577,222.6031342,87.74873352,-0.923339844,-0.806152344,0.624023438, 
206,1147092996,0.130320489,0.696749091,-0.114315212,0.696052313,13.91465664,2.492371559,0.368452191,61.22664261,148.2558441,61.59611511,-0.912109375,-0.794433594,0.621582031, 
207,1147101329,0.1267353,0.689046144,-0.113031082,0.704540551,6.829621315,-6.303040504,11.57946491,47.45498657,151.0223694,48.48775482,-0.988769531,-0.793945313,0.600097656, 
208,1147109662,0.124228463,0.683478236,-0.110711157,0.710751474,7.418284416,-3.488584757,11.99067974,47.48801041,112.0830841,20.89026451,-0.97265625,-0.788574219,0.602539063, 
209,1147117995,0.122273602,0.679916918,-0.10793063,0.714921653,9.512129784,-2.807815313,3.200023413,47.08980179,75.0712204,4.672056198,-1.032226563,-0.790039063,0.586914063, 
210,1147126328,0.120457605,0.67652905,-0.104409434,0.718955517,10.99847031,0.311976254,-3.127217293,53.19753265,73.36528015,-4.157668591,-1.014160156,-0.791015625,0.594238281, 
211,1147134661,0.118636459,0.672289789,-0.10121876,0.723675907,9.244571686,0.400760591,-1.974183559,49.51693726,87.79066467,1.380542874,-1.068359375,-0.794433594,0.578613281, 
212,1147142994,0.117000282,0.668058038,-0.09824127,0.728256762,8.896209717,-0.857992649,1.638747573,45.54082108,86.16654205,1.215968966,-1.044921875,-0.792480469,0.580566406, 
213,1147151327,0.116168499,0.663462698,-0.095478937,0.732943356,9.336598396,-0.241559923,2.425498962,35.51524734,91.68925476,-4.14500761,-1.090332031,-0.795410156,0.55859375, 
214,1147159660,0.115556978,0.65941149,-0.093088768,0.736992061,8.298437119,0.676182926,2.128929853,29.82377815,79.91854858,-4.75408411,-1.067871094,-0.791992188,0.555175781, 
215,1147167993,0.115189388,0.655901849,-0.091723442,0.740344942,9.4229002,1.902265668,0.561977506,17.1583786,66.96382141,0.31910342,-1.114746094,-0.798828125,0.52734375, 
216,1147176326,0.1146883,0.652476668,-0.090882562,0.743546128,9.06711483,0.801455021,0.216531128,13.00732803,63.57823563,6.017587185,-1.091796875,-0.798339844,0.521484375, 
217,1147184659,0.113438971,0.649276435,-0.089815401,0.746662378,8.643554688,1.230803013,1.125689745,22.24111366,60.09622574,11.26749897,-1.147460938,-0.803222656,0.50390625, 
218,1147192992,0.111702703,0.64636147,-0.088916942,0.749555111,8.863278389,2.113688469,2.757169724,25.06772423,54.15457153,17.03020668,-1.1328125,-0.799804688,0.504394531, 
219,1147201325,0.109882094,0.643842876,-0.088471502,0.752040505,9.419214249,2.951257944,3.034497976,21.21731186,45.80181885,20.85728073,-1.19140625,-0.796386719,0.485839844, 
220,1147209658,0.108151212,0.641412556,-0.088750213,0.754331827,10.12298489,2.090489388,2.54680109,12.86595535,42.03804398,25.90629387,-1.172851563,-0.795898438,0.484863281, 
221,1147217991,0.10652478,0.639082253,-0.089474715,0.756452501,8.775339127,0.190308899,2.822700024,7.224444866,39.10611343,28.41201973,-1.225585938,-0.791992188,0.464355469, 
222,1147226324,0.105054624,0.637194276,-0.089956209,0.758191764,8.495656967,-0.651108921,2.465900898,8.58581543,31.55828094,23.52682495,-1.208007813,-0.784667969,0.461425781, 
223,1147234657,0.10388504,0.63554877,-0.090280712,0.75969398,8.196640015,-0.767039478,2.337604046,7.618538857,27.69571304,18.39691925,-1.263183594,-0.784667969,0.4375, 
224,1147242990,0.103111789,0.63419944,-0.090506941,0.760899127,8.361666679,-1.206339955,2.096266508,5.265303612,22.49536896,12.58139896,-1.241210938,-0.779296875,0.436523438, 
225,1147251323,0.102691352,0.632989049,-0.090636753,0.761947811,9.017954826,-1.136894703,2.544959068,3.170338869,20.39525223,7.678060532,-1.295410156,-0.780273438,0.409179688, 
226,1147259656,0.10254059,0.631923795,-0.090685055,0.762845933,10.03159904,-0.734711051,2.559715986,1.722301483,17.8769207,3.723747015,-1.273925781,-0.775390625,0.409667969, 
227,1147267989,0.10262616,0.630954266,-0.090661861,0.763639331,10.32150745,-0.649985969,2.494531393,0.393857419,16.49612427,0.382561535,-1.322265625,-0.773925781,0.380859375, 
228,1147276322,0.102959096,0.629967153,-0.09067861,0.764407098,10.07626534,-0.710334361,2.8284266,-2.197752953,16.57578087,-1.910258532,-1.305175781,-0.774902344,0.374023438, 
229,1147284655,0.103655204,0.629404008,-0.090499498,0.764798045,10.08305931,-1.292840123,0.872592747,-3.184823036,9.719668388,-8.459025383,-1.351074219,-0.766113281,0.342285156, 
230,1147292988,0.10449937,0.628474414,-0.090301082,0.765470743,10.67787457,-0.467424542,2.13951087,-4.405418873,16.09431076,-9.350914001,-1.330566406,-0.767578125,0.334472656, 
231,1147301321,0.105578765,0.627730787,-0.090064391,0.765960455,9.123561859,-0.960485935,2.141625643,-6.024520397,13.03146172,-12.62815285,-1.374511719,-0.763671875,0.298339844, 
232,1147309654,0.106770948,0.627096474,-0.089797266,0.766346037,10.24647045,0.537184596,1.392374873,-6.615774632,11.04215908,-14.39133644,-1.354003906,-0.76171875,0.285644531, 
233,1147317987,0.107950248,0.626249611,-0.089723453,0.766881824,9.895545006,0.13935256,2.321773767,-8.701388359,14.39980316,-12.07988167,-1.398925781,-0.755859375,0.241210938, 
234,1147326320,0.109141767,0.625480294,-0.089682616,0.767345846,9.381544113,0.283417493,1.571585298,-9.09597683,12.81425571,-12.15206242,-1.376953125,-0.748046875,0.224609375, 
235,1147334653,0.110273838,0.624653518,-0.089823894,0.767840862,9.738725662,0.435279787,1.843258977,-10.58447075,13.45566177,-9.813635826,-1.416015625,-0.74609375,0.182617188, 
236,1147342986,0.11124184,0.623697996,-0.090067647,0.768448889,9.502148628,0.176628456,2.955456018,-10.29233932,15.31986332,-6.895942688,-1.384765625,-0.73828125,0.163574219, 
237,1147351319,0.112170778,0.622946441,-0.090517476,0.768870592,9.58426857,0.289560825,1.833341599,-12.07598877,11.31333637,-5.229506493,-1.421386719,-0.731933594,0.117675781, 
238,1147359652,0.112943195,0.622085273,-0.091142416,0.769380808,10.24415493,0.351010889,1.98258841,-12.61964989,12.65693188,-1.824758649,-1.384277344,-0.718261719,0.100585938, 
239,1147367985,0.113621578,0.621234,-0.091808833,0.769889295,9.947928429,0.448836148,2.31708169,-12.26578808,12.46313381,-0.465794951,-1.412109375,-0.709472656,0.055175781, 
240,1147376318,0.114354476,0.620318592,-0.092634894,0.770419657,10.16697598,0.08848159,2.894836187,-14.47079277,13.04601288,0.412427783,-1.374511719,-0.697265625,0.042480469, 
241,1147384651,0.115150608,0.619548261,-0.093553036,0.770809948,9.165463448,-0.978938699,1.404899001,-15.96072102,10.35270023,0.14593713,-1.3984375,-0.684570313,-0.000976563, 
242,1147392984,0.115832672,0.618756771,-0.094253384,0.771258056,9.837852478,-0.238881737,1.402671337,-12.61631966,11.16917801,-0.403501123,-1.357910156,-0.671875,-0.008300781, 
243,1147401317,0.116467133,0.617841125,-0.095008075,0.771803796,8.917707443,-0.457458347,2.622216702,-12.8817091,13.26519203,0.901403546,-1.382324219,-0.657226563,-0.041503906, 
244,1147409650,0.117144868,0.617173314,-0.095808156,0.77213639,9.572500229,-0.35310787,1.380292654,-13.58008099,8.717664719,0.143298864,-1.332519531,-0.6484375,-0.046386719, 
245,1147417983,0.117644377,0.616303265,-0.096567892,0.772660673,10.15299892,0.341589838,2.897638798,-11.74348927,12.41508102,2.288209915,-1.359863281,-0.627929688,-0.077148438, 
246,1147426316,0.118146695,0.615367949,-0.097514741,0.773210466,9.493655205,0.409231544,3.160984516,-13.80748367,12.93474388,3.94832015,-1.320800781,-0.618652344,-0.078125, 
247,1147434649,0.118749082,0.614574194,-0.098650917,0.773605287,10.33806992,0.186875686,2.025511503,-16.66526794,10.03303528,4.066837788,-1.344238281,-0.6015625,-0.104003906, 
248,1147442982,0.119212031,0.613535225,-0.099731266,0.774220049,10.16924667,0.288444459,2.744657993,-14.97321796,14.31799126,5.752204418,-1.305175781,-0.586914063,-0.102539063, 
249,1147451315,0.119740799,0.612478852,-0.100929052,0.774819493,9.720001221,0.543943346,2.584926844,-16.84946251,14.35738754,6.060214996,-1.330566406,-0.565917969,-0.131835938, 
250,1147459648,0.120348617,0.611406565,-0.102260411,0.775397122,9.775237083,-0.360369056,2.349940777,-18.98630524,14.15157795,6.311926842,-1.297363281,-0.559082031,-0.12890625, 
251,1147467981,0.120848797,0.610230446,-0.103521362,0.776078165,9.545170784,-0.409554362,2.583963156,-17.36607552,16.17602348,7.204122543,-1.318847656,-0.540039063,-0.157226563, 
252,1147476314,0.12141031,0.609027207,-0.104804046,0.776763618,9.790927887,-0.191987842,2.185050726,-18.13578415,16.47407532,6.757282257,-1.287109375,-0.525390625,-0.150878906, 
253,1147484647,0.121905543,0.607729554,-0.10608571,0.777527988,9.849283218,0.050915316,2.56539011,-17.63013458,18.12849808,7.744250298,-1.313964844,-0.505371094,-0.181640625, 
254,1147492980,0.122428514,0.606351018,-0.107500814,0.778327048,9.670259476,0.045417733,2.191357613,-19.35238647,19.02448654,8.721536636,-1.281738281,-0.48828125,-0.177734375, 
255,1147501313,0.122942299,0.604884267,-0.108892553,0.779193461,9.972447395,0.229289487,2.26783514,-19.09614563,20.62940025,8.885367393,-1.308105469,-0.467773438,-0.208496094, 
256,1147509646,0.123498619,0.6033445,-0.110404521,0.780085921,9.692325592,0.1713624,2.432113409,-20.80151749,21.41870689,9.569832802,-1.282226563,-0.454589844,-0.208984375, 
257,1147517979,0.124137796,0.601783574,-0.112007186,0.780961156,10.10095978,-0.36075297,2.045159578,-22.54305458,21.54705811,9.449034691,-1.301757813,-0.434082031,-0.239746094, 
258,1147526312,0.124681666,0.600056052,-0.113471799,0.781991839,10.06376648,-0.472327918,2.919326782,-20.30562782,24.6427002,9.838936806,-1.278808594,-0.415039063,-0.236816406, 
259,1147534645,0.125432521,0.598404706,-0.114978448,0.782916605,10.05944347,-0.544441462,2.477445126,-22.51390648,23.26823425,7.673249722,-1.291992188,-0.388183594,-0.271484375, 
260,1147542978,0.126301646,0.596639514,-0.116267443,0.783932805,10.27155209,-0.786513269,2.547142982,-21.18934441,25.74393082,4.928094387,-1.267578125,-0.375488281,-0.26953125, 
261,1147551311,0.127422512,0.594826519,-0.116956994,0.785025895,10.72085857,-0.672328174,2.657943487,-16.75833511,28.39964294,-2.475106001,-1.279785156,-0.35546875,-0.303710938, 
262,1147559644,0.130384624,0.593036532,-0.112935662,0.78648138,10.53724384,8.493185997,3.592032909,19.66825676,42.26693726,-60.30450439,-1.247558594,-0.344726563,-0.295898438, 
263,1147567977,0.134238079,0.591561079,-0.116620503,0.786406577,12.32090569,1.450056076,3.142991543,-72.76806641,14.01570415,-10.31464672,-1.248535156,-0.33203125,-0.329589844, 
264,1147576310,0.13598454,0.588569283,-0.115954019,0.78844732,7.70416832,-0.354659885,2.156724691,-7.95692873,52.21937943,-16.59665871,-1.219238281,-0.312988281,-0.322265625, 
265,1147584643,0.138596088,0.586252689,-0.118192919,0.789385438,13.17339611,-1.195159078,3.389369249,-46.97537994,31.97727013,-5.593088627,-1.223144531,-0.292480469,-0.352050781, 
266,1147592976,0.140145317,0.583182216,-0.119368725,0.791207075,7.997746468,-0.559317291,2.839972734,-26.85756683,47.53034592,0.273471057,-1.196289063,-0.272949219,-0.344238281, 
267,1147601309,0.142183885,0.58044064,-0.120970227,0.792614877,11.90691757,-3.450548887,2.236964226,-35.47362137,40.67110825,-2.970336437,-1.194824219,-0.255859375,-0.368164063, 
268,1147609642,0.143059134,0.577102005,-0.12238469,0.79467535,10.61490822,-3.319386721,2.543648243,-24.21755791,50.76495361,10.48241234,-1.169921875,-0.237792969,-0.364257813, 
269,1147617975,0.143998221,0.573888958,-0.123365462,0.796678543,10.43510914,-2.779968262,2.27263689,-19.84690666,49.95240021,6.023394108,-1.166503906,-0.217773438,-0.387207031, 
270,1147626308,0.144680008,0.570472062,-0.124143519,0.798885345,10.67781448,-3.173351049,2.360436678,-15.64627171,53.7069931,7.975130558,-1.146484375,-0.204589844,-0.37890625, 
271,1147634641,0.145129204,0.566997409,-0.124524318,0.801214933,10.6655407,-3.234799147,2.575310469,-9.370659828,55.74970245,7.771853924,-1.147460938,-0.183105469,-0.396484375, 
272,1147642974,0.145300001,0.563343287,-0.124589786,0.803747118,10.68027592,-3.200526476,3.217792511,-3.71876359,59.41040802,9.073578835,-1.127929688,-0.170410156,-0.391601563, 
273,1147651307,0.145216316,0.559581459,-0.124412388,0.806413114,10.53899288,-2.720448494,2.407810211,0.932822227,61.73482895,10.47707558,-1.125976563,-0.150878906,-0.407226563, 
274,1147659640,0.144933209,0.555780172,-0.12400528,0.809151053,10.62827301,-2.085549116,2.471179247,5.080358505,62.79949951,11.11114883,-1.106445313,-0.137207031,-0.397460938, 
275,1147667973,0.144541651,0.551738977,-0.123351485,0.812081516,10.85997772,-1.580972195,4.065019131,8.483047485,67.2905426,11.24545097,-1.104980469,-0.120117188,-0.416992188, 
276,1147676306,0.144145131,0.547615647,-0.122697935,0.815036595,10.46390247,-1.422833085,2.820234537,8.415631294,68.35031128,11.47298527,-1.086914063,-0.10546875,-0.404785156, 
277,1147684639,0.143709674,0.543408692,-0.1219486,0.818036199,10.79221344,-1.144394517,3.367281675,9.67427063,69.78277588,11.4343853,-1.087890625,-0.094726563,-0.428222656, 
278,1147692972,0.143219203,0.539012432,-0.121084042,0.821153224,10.79666233,-1.014657736,3.68289566,11.21335125,72.89221191,11.71580219,-1.070800781,-0.081054688,-0.41796875, 
279,1147701305,0.142693743,0.534454584,-0.120204546,0.82434696,10.64097404,-0.374205172,3.01234293,11.44037533,75.28910065,12.44694328,-1.070800781,-0.062988281,-0.435058594, 
280,1147709638,0.142355174,0.529754162,-0.119318023,0.827561796,11.00743866,-0.105447501,3.600256205,9.938812256,77.34964752,10.53619099,-1.058105469,-0.056152344,-0.423339844, 
281,1147717971,0.142096609,0.524765193,-0.118456356,0.830901861,11.3048439,0.221770152,3.939832449,8.677166939,81.6629715,10.54345703,-1.05859375,-0.037109375,-0.442871094, 
282,1147726304,0.141971916,0.519540608,-0.117661312,0.834312379,11.13435841,0.335693896,3.316689491,6.627072811,84.92386627,9.997032166,-1.037597656,-0.025878906,-0.437011719, 
283,1147734637,0.142034367,0.514049113,-0.116886713,0.837804914,11.64562798,0.197806343,3.384365559,4.642830372,88.86187744,8.60635376,-1.043457031,-0.013183594,-0.455566406, 
284,1147742970,0.142281666,0.508217931,-0.116119772,0.841419399,12.03574753,-0.168477759,3.418553591,2.795264959,93.89611053,7.293902874,-1.02734375,-0.003417969,-0.446777344, 
285,1147751303,0.142627776,0.502028525,-0.115128264,0.845204234,13.42509556,-1.444208264,2.621939659,4.26064539,99.85176849,5.508428574,-1.026855469,0.009277344,-0.468261719, 
286,1147759636,0.142718658,0.495474428,-0.113845646,0.849220574,14.76965237,-0.520102143,3.099174976,9.077582359,105.8389053,7.482133389,-1.014160156,0.018066406,-0.466308594, 
287,1147767969,0.142846495,0.488158315,-0.112585254,0.853592932,16.37838364,0.617972076,5.334728718,7.607919216,117.195488,9.106882095,-1.015625,0.02734375,-0.485839844, 
288,1147776302,0.143530905,0.479819357,-0.111336261,0.858356893,16.48751068,2.427296638,2.985277891,2.355521917,132.6623535,4.986964703,-0.998535156,0.032226563,-0.481933594, 
289,1147784635,0.145072803,0.47074917,-0.110391624,0.863228083,16.04463768,3.281940937,3.137199879,-8.196677208,142.72258,-1.777660012,-1.000976563,0.042480469,-0.505371094, 
290,1147792968,0.147338241,0.460894972,-0.109536581,0.868256271,17.84942055,1.594188809,4.940164089,-15.25567532,153.9657593,-8.298957825,-0.986816406,0.044921875,-0.505371094, 
291,1147801301,0.150161281,0.449980319,-0.108525954,0.873608172,19.50591087,2.246903419,2.554702997,-18.60671043,169.8352661,-13.67530632,-0.989746094,0.051757813,-0.526367188, 
292,1147809634,0.153740063,0.437811494,-0.107664227,0.879257381,18.59261131,3.233777285,1.474451423,-27.22171974,187.5767822,-19.36115074,-0.969238281,0.05078125,-0.530761719, 
293,1147817967,0.158284858,0.424696058,-0.106657006,0.884987831,19.02645493,3.096420527,0.89240092,-33.15667725,201.2376404,-30.33006668,-0.963378906,0.048828125,-0.557617188, 
294,1147826300,0.163852349,0.410302639,-0.105615988,0.890870214,18.72535706,3.842417717,-0.288645506,-41.2798996,219.2876587,-40.77038193,-0.943359375,0.045410156,-0.562011719, 
295,1147834633,0.170398608,0.394882023,-0.105059274,0.896657884,17.70677185,3.409575701,-1.397438288,-55.18559265,231.6364899,-48.74988174,-0.936523438,0.047363281,-0.594726563, 
296,1147842966,0.177692443,0.378323138,-0.105130732,0.902354896,16.87450027,1.301919222,-0.80636847,-69.80335236,244.8463898,-53.12329102,-0.916503906,0.040039063,-0.602050781, 
297,1147851299,0.184802935,0.360727727,-0.105424747,0.908079803,15.35383987,-1.644707084,2.507886887,-74.09197235,256.9901123,-48.12659836,-0.908691406,0.034667969,-0.635742188, 
298,1147859632,0.190653861,0.342770189,-0.105401605,0.91381067,14.14689636,-5.455371857,9.514058113,-64.80325317,260.6040649,-33.41413116,-0.886230469,0.027832031,-0.646484375, 
299,1147867965,0.194905862,0.325232267,-0.103643984,0.919507146,16.10874748,-4.463048458,9.39552784,-34.40937805,257.3147278,-22.21004868,-0.875488281,0.025390625,-0.681640625, 
300,1147876298,0.197971955,0.306671113,-0.101018682,0.925502598,14.92074203,1.511478901,3.183075428,-20.45697594,272.319519,-8.830806732,-0.855957031,0.015625,-0.685546875, 
301,1147884631,0.199902594,0.288883746,-0.099341065,0.930976033,6.965473175,2.307156324,0.301583737,-26.34045029,256.0189819,7.118470192,-0.837402344,0.013671875,-0.719238281, 
302,1147892964,0.201234624,0.274751872,-0.099126086,0.934981167,8.170133591,1.775921345,-0.859180927,-34.65255356,198.6453247,11.5656271,-0.823730469,0.003417969,-0.720703125, 
303,1147901297,0.201461345,0.261873245,-0.098405458,0.938696921,10.75318432,-1.409788728,-1.363192916,-20.89419174,181.2250061,21.35424805,-0.815429688,-0.001464844,-0.750488281, 
304,1147909630,0.200216874,0.250230879,-0.095197916,0.942462206,9.299646378,-1.643046498,-1.580235243,19.98643684,170.458786,29.8592453,-0.803222656,-0.008300781,-0.750488281, 
305,1147917963,0.197915196,0.240361229,-0.09038581,0.945984423,6.997211933,1.654490829,-1.772880077,48.99757767,149.5644073,35.04349136,-0.796875,-0.023925781,-0.767578125, 
306,1147926296,0.19576332,0.232858703,-0.085819796,0.948730052,3.797492504,3.029124975,-2.306689739,50.77442932,115.8500366,28.87129211,-0.7890625,-0.032226563,-0.760253906, 
307,1147934629,0.194695607,0.228135765,-0.082060061,0.950428486,4.139612675,6.702064037,-3.648302555,43.03282928,75.20819092,11.18946171,-0.787109375,-0.044433594,-0.776367188, 
308,1147942962,0.195312724,0.224353626,-0.081907451,0.951214671,1.715286613,6.483987808,-2.666153908,-7.923654556,52.43606186,-3.019284964,-0.783691406,-0.056640625,-0.768554688, 
309,1147951295,0.195898145,0.22424449,-0.084279321,0.950912774,2.363299847,-0.744603813,-3.803508043,-32.19296265,-5.923924923,-1.875079036,-0.784667969,-0.057617188,-0.785644531, 
310,1147959628,0.194970682,0.225683585,-0.083996527,0.950788021,8.434351921,-1.877666593,-4.360075474,11.53714371,-20.08209419,8.411872864,-0.791015625,-0.068359375,-0.770019531, 
311,1147967961,0.194035619,0.225705355,-0.082542472,0.951101363,4.80279541,-0.022965781,-2.002170086,23.60663223,2.79851079,7.681354523,-0.796386719,-0.076171875,-0.784179688, 
312,1147976294,0.193821743,0.227700636,-0.081032179,0.950799346,0.823308289,-1.886686087,-1.392082214,26.64860535,-23.80243874,-5.791333675,-0.805664063,-0.088867188,-0.776367188, 
313,1147984627,0.19321537,0.232275099,-0.078502528,0.950028121,2.294569969,-0.599994957,-1.639627576,47.57973862,-56.86904907,-7.991936207,-0.811523438,-0.101074219,-0.786132813, 
314,1147992960,0.192112193,0.23794578,-0.07587824,0.949061155,2.722306252,1.330907464,-1.305795431,53.08980179,-71.94417572,-3.493281364,-0.823730469,-0.116699219,-0.766113281, 
315,1148001293,0.190875962,0.24454163,-0.073809311,0.947796345,2.529825211,2.328666687,-0.787660301,48.42564011,-86.75370789,-1.706704021,-0.833984375,-0.127929688,-0.76953125, 
316,1148009626,0.189869553,0.251956016,-0.072492555,0.9461568,2.236189842,2.8387146,-0.49519527,39.5909462,-100.2677536,-3.994350672,-0.848632813,-0.141113281,-0.755371094, 
317,1148017959,0.189322427,0.260370106,-0.072225876,0.944006264,2.05277276,3.250500917,-0.525697529,26.46464348,-117.4865341,-8.655237198,-0.860839844,-0.153320313,-0.760742188, 
318,1148026292,0.189102054,0.269634634,-0.073370963,0.941357613,2.830164194,3.246029854,-0.695109248,8.654945374,-133.5011597,-9.993041039,-0.877441406,-0.167480469,-0.737792969, 
319,1148034625,0.188977063,0.279284149,-0.07577543,0.938374221,2.9976542,2.246839762,-0.653290212,-7.306016922,-143.0671997,-7.808039188,-0.896972656,-0.1796875,-0.745117188, 
320,1148042958,0.188667938,0.289716482,-0.078970626,0.935003936,2.400322437,1.58717978,-0.38189429,-15.20193195,-156.7413788,-4.198020935,-0.912597656,-0.186523438,-0.724609375, 
321,1148051291,0.188252196,0.301214933,-0.083141729,0.931084514,3.224241257,1.561419487,-0.569895029,-25.12710762,-175.4476929,-1.539483786,-0.9375,-0.196777344,-0.73046875, 
322,1148059624,0.1880178,0.31331563,-0.088027753,0.926678777,4.565863609,0.732863486,-0.856128573,-34.06881714,-186.6528015,-2.839620113,-0.957519531,-0.207519531,-0.703125, 
323,1148067957,0.187978402,0.325691283,-0.093110569,0.921910822,5.210528851,0.004372075,-0.671754897,-37.10504532,-192.1534729,-5.754547119,-0.989257813,-0.219238281,-0.706542969, 
324,1148076290,0.188124031,0.338334113,-0.098021649,0.91680485,5.478123188,-0.916685641,-0.460089028,-35.53735733,-196.2102051,-10.07225513,-1.009277344,-0.234375,-0.679199219, 
325,1148084623,0.188373744,0.351369947,-0.102458671,0.91134882,5.618170261,-1.852404952,-0.36457932,-29.46105766,-201.592041,-15.04043674,-1.039550781,-0.245605469,-0.678710938, 
326,1148092956,0.188436657,0.364965022,-0.106005877,0.905568779,6.153237343,-2.40615201,-0.281323493,-16.44556427,-207.9555817,-18.60105896,-1.056640625,-0.265625,-0.650878906, 
327,1148101289,0.188254744,0.378990918,-0.10850931,0.899528623,6.635561943,-2.20580864,-0.14948225,-1.448696852,-212.4488983,-22.1173439,-1.092285156,-0.283691406,-0.64453125, 
328,1148109622,0.187867671,0.393483609,-0.110040359,0.893178284,7.008313656,-2.090806961,0.143684432,12.35896873,-217.4555969,-26.12949753,-1.106445313,-0.311523438,-0.606445313, 
329,1148117955,0.187092394,0.408445179,-0.110621184,0.886528015,7.368560791,-1.865688562,0.53334415,26.92583466,-223.1421661,-28.0021286,-1.142089844,-0.336425781,-0.593261719, 
330,1148126288,0.185712412,0.423911124,-0.110384382,0.879559875,7.917859554,-1.094872236,0.812178731,41.07460785,-229.7165375,-26.79555702,-1.151367188,-0.366699219,-0.548339844, 
331,1148134621,0.18383722,0.439711988,-0.109716401,0.872249722,8.51697731,-0.29979831,1.097494125,49.54133606,-235.5925446,-24.71521568,-1.190917969,-0.397949219,-0.529296875, 
332,1148142954,0.18163152,0.455781668,-0.108782612,0.864545822,9.196065903,0.193405792,1.323297739,54.79946136,-240.8414307,-23.74160767,-1.200683594,-0.432128906,-0.475585938, 
333,1148151287,0.179333866,0.47197631,-0.107768036,0.856424987,9.687158585,0.742713749,1.699289322,56.04055023,-245.0597534,-24.39920807,-1.239746094,-0.471679688,-0.444824219, 
334,1148159620,0.177074552,0.488333225,-0.106920488,0.847787321,10.30109119,0.655211091,1.8258214,53.44226456,-250.4992065,-25.2707901,-1.243164063,-0.508789063,-0.377929688, 
335,1148167953,0.174709454,0.504765928,-0.106226899,0.838691771,11.05160713,0.628934622,2.087049246,51.88587189,-255.1685486,-24.24097824,-1.283691406,-0.548828125,-0.34375, 
336,1148176286,0.172226459,0.521227479,-0.105779208,0.829138577,11.75768948,0.716091692,2.375324488,49.2409668,-259.2581787,-22.30458832,-1.283691406,-0.58984375,-0.268066406, 
337,1148184619,0.169778183,0.537605047,-0.105621025,0.819146097,12.55467319,0.676048458,2.578834057,44.87984085,-262.2702026,-21.55488968,-1.318359375,-0.625976563,-0.220214844, 
338,1148192952,0.167438373,0.553777814,-0.105656065,0.808783829,13.18900967,0.515117586,2.801914692,40.85440826,-262.8049927,-21.90443802,-1.298339844,-0.666992188,-0.13671875, 
339,1148201285,0.165211082,0.569746196,-0.105910495,0.798045874,13.55387688,0.240754962,3.055314779,36.5725708,-263.919342,-22.06405449,-1.323242188,-0.706054688,-0.074707031, 
340,1148209618,0.163007408,0.585583925,-0.106352881,0.786898434,14.29050446,-0.046300638,3.255930662,33.40325165,-265.9046326,-21.5812645,-1.290527344,-0.741210938,0.012207031, 
341,1148217951,0.160835341,0.601136923,-0.106930889,0.77545619,15.24643898,-0.130577132,3.691497803,30.64068031,-265.6381531,-21.08566856,-1.303710938,-0.772460938,0.077148438, 
342,1148226284,0.158742443,0.616232216,-0.107677251,0.763848245,16.32855225,0.163978666,4.352375031,26.90509605,-262.2000732,-20.21996689,-1.247558594,-0.80078125,0.1640625, 
343,1148234617,0.156931773,0.630638182,-0.108599827,0.752245784,16.94025421,0.51659596,5.141436577,21.19487381,-255.0601654,-20.67076111,-1.247558594,-0.826171875,0.229492188, 
344,1148242950,0.155575812,0.644450545,-0.10984356,0.740549743,17.22041893,0.719037116,5.83094883,12.49077034,-249.5713501,-21.89349556,-1.181152344,-0.846191406,0.302246094, 
345,1148251283,0.154529795,0.657823205,-0.111494333,0.728668809,17.77080345,0.658290088,6.306658268,4.394398689,-247.3075409,-21.18448067,-1.170898438,-0.862792969,0.357421875, 
346,1148259616,0.15365319,0.670720041,-0.113568291,0.716678262,18.41333008,0.995661259,6.792563915,-2.579669237,-244.0066528,-18.54740143,-1.09375,-0.873535156,0.419433594, 
347,1148267949,0.153131694,0.682996511,-0.116064064,0.704695523,18.54821205,1.421539426,7.769263268,-11.28947926,-238.3202972,-17.17969322,-1.0859375,-0.883789063,0.461914063, 
348,1148276282,0.153157264,0.694545746,-0.118945375,0.692820907,18.87985802,2.146831512,9.19968605,-21.54661179,-230.0483704,-17.4617672,-0.999023438,-0.882324219,0.513671875, 
349,1148284615,0.153907061,0.705032349,-0.122310437,0.681382298,18.41988945,2.979338408,10.78334713,-34.57317352,-215.7375031,-17.0950737,-1.003417969,-0.889648438,0.541015625, 
350,1148292948,0.155704051,0.714502275,-0.126265422,0.670298219,17.24037743,3.054934263,12.07410812,-51.82582474,-202.1353607,-18.70815659,-0.921875,-0.885253906,0.573730469, 
351,1148301281,0.158563584,0.722936511,-0.130422324,0.659704685,16.96648026,2.315960407,13.08732319,-65.47742462,-186.4811859,-23.68953705,-0.919433594,-0.890625,0.594238281, 
352,1148309614,0.162286878,0.730081141,-0.134443715,0.650053322,16.3817234,1.834560871,14.24465656,-73.97813416,-163.473526,-28.47978592,-0.845214844,-0.88671875,0.607910156, 
353,1148317947,0.166819349,0.735910416,-0.138255745,0.64147681,15.0173893,1.239089489,15.67858982,-81.15816498,-139.0539398,-33.0104332,-0.850097656,-0.894042969,0.612792969, 
354,1148326280,0.172165573,0.740653992,-0.141717046,0.633803487,13.77278519,-0.547372878,16.74492073,-87.0893631,-117.9238052,-39.57244492,-0.774902344,-0.890625,0.620605469, 
355,1148334613,0.177958757,0.744389534,-0.144497916,0.627164423,13.77600193,-3.841840029,17.17047691,-86.06491852,-96.18089294,-46.01470947,-0.786621094,-0.896972656,0.615722656, 
356,1148342946,0.18318224,0.746913195,-0.146431759,0.622191846,14.14121342,-7.036377907,17.61414909,-72.57702637,-67.70855713,-43.26327133,-0.719238281,-0.900390625,0.610351563, 
357,1148351279,0.186823234,0.748135805,-0.147552505,0.619369209,13.47626877,-9.236955643,17.76622581,-48.31688309,-35.65297318,-30.06085396,-0.73828125,-0.905761719,0.604003906, 
358,1148359612,0.188413709,0.74834168,-0.147803694,0.618578136,12.2573328,-9.413901329,17.25255966,-18.30578423,-8.037111282,-14.2491293,-0.686523438,-0.903808594,0.605957031, 
359,1148367945,0.188337043,0.747750938,-0.147138804,0.619473934,11.72195244,-7.924087048,16.00113678,8.006717682,15.10240078,-3.515862226,-0.728027344,-0.902832031,0.597167969, 
360,1148376278,0.187364876,0.746386528,-0.145676062,0.62175554,11.22425842,-5.999690533,14.46290302,24.83044243,36.1395607,1.046253562,-0.685058594,-0.899414063,0.605957031, 
361,1148384611,0.185801685,0.744441688,-0.143568709,0.625037968,10.84784317,-4.480702877,12.45801735,36.90077591,51.90802765,3.242786169,-0.742675781,-0.903320313,0.604492188, 
362,1148392944,0.183866307,0.741966069,-0.141177177,0.629085243,10.33705807,-2.56431675,10.53720093,43.3227272,64.20274353,6.503783703,-0.706542969,-0.895507813,0.609375, 
363,1148401277,0.181070939,0.738569975,-0.139361516,0.634275794,16.12420845,-2.698400259,8.757731438,46.99091721,80.79680634,24.52953339,-0.769042969,-0.901855469,0.606445313, 
364,1148409610,0.175949007,0.732069969,-0.136163458,0.643874764,12.0842123,-5.483272076,7.584233761,83.42177582,151.5153351,47.66999817,-0.742675781,-0.888183594,0.610839844, 
365,1148417943,0.170984998,0.726769686,-0.132620975,0.651906013,2.338968039,0.105535224,10.31745815,84.82775879,126.3516846,36.8016243,-0.81640625,-0.884765625,0.606933594, 
366,1148426276,0.166231215,0.719842017,-0.130908877,0.661102951,18.16539574,-8.622596741,7.198148727,64.64704132,148.5426941,58.87705231,-0.799804688,-0.876464844,0.603027344, 
367,1148434609,0.157692388,0.712245524,-0.125824824,0.672314823,24.40740013,-0.194863558,0.035697937,134.8430328,175.5957947,65.76212311,-0.875488281,-0.872070313,0.595703125, 
368,1148442942,0.153351873,0.704003692,-0.124123201,0.68224287,20.99513626,10.40981674,-8.776382446,58.86074066,168.7700806,58.36091995,-0.866699219,-0.862792969,0.599121094, 
369,1148451275,0.148870021,0.696672976,-0.123484701,0.690822661,10.49081993,-3.314917803,-5.371053696,49.8388443,144.829361,65.62732697,-0.944335938,-0.854980469,0.581054688, 
370,1148459608,0.143883288,0.690143049,-0.122023329,0.69864893,13.76513004,0.367882639,-3.551390648,62.87932205,130.6903381,59.59981537,-0.933105469,-0.850585938,0.579589844, 
371,1148467941,0.139441133,0.683755994,-0.119606994,0.70620662,8.425517082,-5.145077229,4.460998535,66.69270325,129.7109375,44.57166672,-0.999511719,-0.843261719,0.563476563, 
372,1148476274,0.135838926,0.678320169,-0.116180658,0.712692976,7.446130753,-2.825036049,7.72707653,68.69223785,113.5934753,23.26574326,-0.987792969,-0.838867188,0.564453125, 
373,1148484607,0.133240446,0.674139142,-0.112565175,0.717713177,9.341068268,-1.92811656,3.4844203,61.15558243,89.69792938,6.950738907,-1.043945313,-0.840332031,0.548339844, 
374,1148492940,0.131488577,0.670047998,-0.109068707,0.722392082,10.33788395,-0.518344939,-0.717817783,51.79665756,86.61090851,-1.099372745,-1.025390625,-0.841308594,0.553222656, 
375,1148501273,0.130528897,0.665791273,-0.105912291,0.726957023,7.8307724,-0.001379421,-0.172951922,40.6222229,87.90888214,-5.757718086,-1.078613281,-0.841308594,0.535644531, 
376,1148509606,0.130216002,0.661783457,-0.103425927,0.731019437,9.134352684,-1.199216485,1.264541388,27.74911499,80.42729187,-7.392854214,-1.056152344,-0.845703125,0.533203125, 
377,1148517939,0.130371466,0.657711744,-0.101308562,0.734952331,9.065126419,-0.175626904,2.508372784,19.44604683,80.02779388,-8.845212936,-1.103027344,-0.8515625,0.509277344, 
378,1148526272,0.130707338,0.654284,-0.099752247,0.738158166,8.657862663,0.245422572,2.172751904,12.32637501,66.06477356,-7.829432487,-1.076660156,-0.855957031,0.504882813, 
379,1148534605,0.130581558,0.651215255,-0.098303847,0.741082907,9.913600922,0.92534858,1.442288399,15.60210419,59.18814468,-3.135935307,-1.124023438,-0.859863281,0.4765625, 
380,1148542938,0.129568785,0.64844346,-0.096773691,0.743887007,8.05934906,1.593757391,1.885651469,24.77991867,53.90769958,4.521605968,-1.104003906,-0.861816406,0.475097656, 
381,1148551271,0.127844378,0.646153212,-0.095335044,0.746359885,8.542844772,3.170258284,1.872020245,30.57599068,45.03918457,11.41879272,-1.161621094,-0.862792969,0.455566406, 
382,1148559604,0.125889391,0.643855274,-0.09457089,0.748771369,9.119682312,3.780388117,2.495702267,25.63334084,42.96385193,19.65184021,-1.139648438,-0.861328125,0.457519531, 
383,1148567937,0.124059066,0.641646683,-0.094642833,0.750960529,9.601960182,3.146408319,2.717149734,15.76099777,38.90911484,25.29975891,-1.195800781,-0.859863281,0.438964844, 
384,1148576270,0.12245255,0.639523447,-0.095341295,0.752944231,10.03581333,1.516075373,2.279368877,7.205233097,35.32182693,28.0340271,-1.184082031,-0.859375,0.437011719, 
385,1148584603,0.121010661,0.637604415,-0.096065074,0.754710853,9.191776276,-0.438678235,2.314512491,5.543428421,31.58837891,25.93884468,-1.232910156,-0.853515625,0.409667969, 
386,1148592936,0.119833522,0.636007309,-0.096500367,0.756189406,8.53657341,-0.797034264,2.304307461,6.394202232,26.43362045,19.74384117,-1.221679688,-0.8515625,0.41015625, 
387,1148601269,0.119021945,0.634597659,-0.09687084,0.757453561,8.410878181,-0.556367397,2.257825375,3.872835875,23.3197403,14.78563309,-1.270507813,-0.848632813,0.383789063, 
388,1148609602,0.118558839,0.633422256,-0.097215012,0.758465052,8.565073967,-1.766204238,2.10962081,1.173913598,19.06794739,10.18549156,-1.2578125,-0.844238281,0.384277344, 
389,1148617935,0.118439458,0.632288575,-0.097321086,0.759415448,9.101595879,-0.693713725,2.818033934,0.628560841,19.06103325,4.38650322,-1.306152344,-0.83984375,0.356933594, 
390,1148626268,0.118718155,0.631248474,-0.097422205,0.760223925,10.12853241,-0.547336221,2.55338645,-2.795409679,17.27991486,-0.183218628,-1.2890625,-0.840820313,0.353515625, 
391,1148634601,0.119225085,0.630328476,-0.097527124,0.760894179,11.01752567,-0.813322365,1.597228169,-4.828744888,15.23641205,-2.910238743,-1.336914063,-0.835449219,0.319824219, 
392,1148642934,0.119888678,0.62920332,-0.097500309,0.761724114,10.49425888,-0.693121135,2.168244839,-4.909097195,19.08190536,-5.173052311,-1.314453125,-0.833007813,0.311035156, 
393,1148651267,0.120825469,0.628270745,-0.097347185,0.762365222,10.37130928,-0.62033844,1.623748779,-5.90546608,16.11718559,-9.677700043,-1.361328125,-0.830566406,0.272949219, 
394,1148659600,0.121871509,0.627261817,-0.097220875,0.763045371,10.32360077,0.189889967,2.034975052,-7.183668613,17.24943924,-10.43913746,-1.340820313,-0.826660156,0.261230469, 
395,1148667933,0.123131849,0.626268864,-0.097274385,0.763651609,9.137769699,0.044860616,1.964087129,-11.01366425,16.53380203,-11.26616859,-1.388183594,-0.822265625,0.224121094, 
396,1148676266,0.124497443,0.625364244,-0.097321734,0.764165163,9.948152542,0.404829443,1.941191554,-11.81912899,14.86157703,-12.72292709,-1.365722656,-0.817871094,0.208007813, 
397,1148684599,0.125796199,0.62435925,-0.097530894,0.764747262,9.404424667,-0.068610683,2.575932503,-13.03542328,16.23829079,-10.35302258,-1.410644531,-0.813964844,0.164550781, 
398,1148692932,0.126988098,0.623555481,-0.097706743,0.765183508,9.555132866,0.245418042,1.536356688,-11.59400558,12.68787384,-10.05653572,-1.387695313,-0.803222656,0.140625, 
399,1148701265,0.127898067,0.622540474,-0.09803687,0.765815914,9.634264946,0.948034644,2.680449724,-10.92611408,16.0409317,-5.122848988,-1.42578125,-0.797363281,0.09765625, 
400,1148709598,0.128730491,0.621657073,-0.098609306,0.766320407,9.679806709,0.224366963,2.326538801,-12.72254276,12.93571568,-2.649716139,-1.392089844,-0.786132813,0.076660156, 
401,1148717931,0.129439428,0.620741844,-0.099246681,0.766860425,10.35032749,0.291481704,2.290036917,-12.3921175,13.38606644,-0.67198956,-1.421875,-0.771972656,0.03125, 
402,1148726264,0.130046651,0.619763315,-0.100013763,0.767449379,9.820737839,0.17983973,2.350052118,-12.91298389,14.00902939,1.664169908,-1.387207031,-0.760742188,0.011230469, 
403,1148734597,0.130561575,0.618860006,-0.10078799,0.767989397,9.858693123,0.267996818,2.155449152,-12.1592598,12.75055122,2.525064707,-1.411621094,-0.748535156,-0.02734375, 
404,1148742930,0.131029725,0.617916524,-0.101673111,0.768552363,9.435915947,-0.215910226,2.281832218,-12.95903969,13.02009201,4.044194698,-1.370605469,-0.734863281,-0.04296875, 
405,1148751263,0.131463096,0.617069423,-0.102481417,0.769051433,9.459553719,-0.164016649,1.847622037,-11.78109074,11.63412857,3.523866177,-1.395996094,-0.715820313,-0.080566406, 
406,1148759596,0.131820127,0.616149843,-0.103267126,0.769622386,9.086179733,-0.095003255,2.445048571,-10.91850662,12.86007881,4.355535507,-1.354980469,-0.701171875,-0.085449219, 
407,1148767929,0.132110983,0.615306139,-0.104098529,0.770135343,8.624082565,-0.427284718,2.173022747,-10.791255,11.47250366,5.245988846,-1.374023438,-0.685058594,-0.12109375, 
408,1148776262,0.132301226,0.614653409,-0.104889393,0.770516515,9.307148933,-0.17331551,1.505933404,-9.338464737,8.184247971,5.440220356,-1.331542969,-0.670898438,-0.125, 
409,1148784595,0.132274061,0.613819659,-0.10568516,0.771076858,9.456971169,0.438342273,2.961708069,-7.637756824,11.37542534,8.388830185,-1.351074219,-0.654785156,-0.155761719, 
410,1148792928,0.132275239,0.613193333,-0.10664086,0.771443307,9.224455833,0.030213738,1.889529824,-9.462693214,7.213777065,8.770866394,-1.311035156,-0.63671875,-0.151855469, 
411,1148801261,0.132181719,0.612547517,-0.107556626,0.771845281,9.845796585,0.422367215,2.154061079,-8.23920536,7.728495121,9.544980049,-1.340820313,-0.618164063,-0.180175781, 
412,1148809594,0.132015869,0.611868143,-0.108583331,0.772268593,9.450688362,-0.142692491,2.750124216,-8.821621895,7.882871628,11.32212067,-1.300292969,-0.604980469,-0.172363281, 
413,1148817927,0.131899834,0.611290395,-0.109627418,0.772598326,9.398407936,-0.15185833,2.094823122,-9.39558506,6.132522583,10.6311264,-1.327636719,-0.586914063,-0.202636719, 
414,1148826260,0.131827429,0.610614419,-0.110707611,0.772991121,9.88419342,-0.392258734,2.567348957,-10.2197752,7.633851528,10.72234058,-1.297851563,-0.569335938,-0.194824219, 
415,1148834593,0.131769419,0.60987246,-0.111854404,0.773421586,9.550302505,-0.577390432,2.750720024,-11.12073135,8.624175072,11.30844498,-1.322753906,-0.549316406,-0.219726563, 
416,1148842926,0.131785318,0.60917455,-0.11304567,0.773795545,9.581794739,-0.380471528,1.635553122,-12.20152473,7.647760391,10.71117306,-1.290527344,-0.534667969,-0.212890625, 
417,1148851259,0.131753236,0.608345568,-0.114188433,0.774285436,9.665273666,-0.121339962,2.053212643,-11.3586874,10.09530449,11.24497223,-1.315429688,-0.513183594,-0.239746094, 
418,1148859592,0.131732613,0.607483029,-0.115414456,0.774784088,9.562828064,0.352843314,2.517674685,-12.38079929,10.3270874,11.87272739,-1.290527344,-0.498535156,-0.233886719, 
419,1148867925,0.131744817,0.606497467,-0.116823241,0.775342882,9.628156662,-0.206048638,3.006612778,-14.73672104,11.92669678,13.36893368,-1.309570313,-0.473632813,-0.267578125, 
420,1148876258,0.131876305,0.605637372,-0.118330486,0.775763988,9.973725319,0.028665774,1.560799956,-16.76618767,9.389579773,12.45245552,-1.280761719,-0.456542969,-0.263183594, 
421,1148884591,0.131958187,0.604484081,-0.119819365,0.776420951,10.57576084,-0.46631074,2.389188528,-16.31599617,14.49949837,13.74843693,-1.305664063,-0.432128906,-0.29296875, 
422,1148892924,0.132067174,0.6032691,-0.121287912,0.777118862,10.20415878,-0.405160666,2.001323223,-16.36169052,15.52112007,13.44931221,-1.279296875,-0.416015625,-0.286621094, 
423,1148901257,0.132290155,0.601927578,-0.122744471,0.777892053,10.69747353,-0.15974392,1.636335969,-17.29000282,17.76915741,12.49600315,-1.29296875,-0.391113281,-0.32421875, 
424,1148909590,0.132508382,0.600253582,-0.124078266,0.778936148,10.51593399,-0.613247335,3.166688681,-16.07071877,23.72340012,12.56995392,-1.26953125,-0.375976563,-0.319335938, 
425,1148917923,0.132886812,0.598582506,-0.125419766,0.779942095,10.15695095,-0.845197201,2.457943678,-17.54876328,23.69509697,10.85741043,-1.27734375,-0.352050781,-0.3515625, 
426,1148926256,0.13333489,0.59678334,-0.126650885,0.781044602,10.5024786,-0.731235921,2.212399244,-16.99718475,26.13175583,9.588427544,-1.250488281,-0.337402344,-0.345703125, 
427,1148934589,0.133878395,0.594836414,-0.127738595,0.782258809,10.25444889,-0.627984762,2.825400352,-16.3257122,29.11997223,7.85956955,-1.252441406,-0.3125,-0.379394531, 
428,1148942922,0.134528503,0.592783034,-0.128777429,0.783534706,10.30338192,-0.78810519,2.670679092,-16.75062752,30.99601364,6.597478867,-1.225097656,-0.296875,-0.373046875, 
429,1148951255,0.135387316,0.590706944,-0.12966305,0.784807622,10.69028664,-1.045123219,2.387743473,-16.85661888,31.91907692,3.149235249,-1.227539063,-0.276367188,-0.403320313, 
430,1148959588,0.1364021,0.58854425,-0.130058885,0.786190033,11.07773876,-0.46037522,3.09104538,-12.78992081,34.88339233,-2.166480303,-1.19921875,-0.259765625,-0.395019531, 
431,1148967921,0.139687434,0.585979879,-0.123015642,0.78865844,11.98856163,11.78600216,3.712196827,50.43518829,66.08071136,-84.15435028,-1.1953125,-0.245117188,-0.416992188, 
432,1148976254,0.144308493,0.584586143,-0.128284857,0.788020909,14.07191277,-2.228490591,2.499150276,-96.85307312,6.917168617,-7.385388851,-1.1640625,-0.236816406,-0.405273438, 
433,1148984587,0.14624837,0.580952883,-0.126054272,0.790705681,5.176463604,3.703457594,3.78344059,7.375871658,68.09422302,-28.06316566,-1.16015625,-0.216308594,-0.42578125, 
434,1148992920,0.14847742,0.577929556,-0.127942204,0.792201042,14.50249195,-5.804427624,2.393873453,-40.54833221,44.13460541,-1.759344935,-1.132324219,-0.203613281,-0.415527344, 
435,1149001253,0.150295466,0.574708343,-0.128744572,0.79406935,7.787780762,-0.378018916,2.767179251,-25.20747375,50.79169846,-4.793640614,-1.130371094,-0.186035156,-0.433105469, 
436,1149009586,0.151618123,0.571338654,-0.129858002,0.796065927,11.7464571,-6.00305748,1.883189797,-24.7621212,51.86294174,3.598515511,-1.106445313,-0.166503906,-0.420410156, 
437,1149017919,0.152029961,0.56777519,-0.130296648,0.798461676,9.742548943,-5.672827244,2.846435547,-9.917374611,56.94500351,9.449054718,-1.105957031,-0.147949219,-0.439941406, 
438,1149026252,0.152109385,0.564273655,-0.130320802,0.800920725,10.90062809,-5.226984978,2.348228693,-2.520524979,56.98926163,9.875916481,-1.08984375,-0.135253906,-0.427734375, 
439,1149034585,0.151704445,0.560699165,-0.129868031,0.803577185,10.99629498,-4.602257252,2.895850897,6.684479713,59.49505997,12.06112957,-1.090332031,-0.115234375,-0.446777344, 
440,1149042918,0.150998622,0.556947827,-0.128961727,0.806459665,11.23666,-3.359375238,2.962323904,14.06740284,63.56612015,12.66061306,-1.069335938,-0.099609375,-0.436035156, 
441,1149051251,0.150092408,0.552990496,-0.1278238,0.809527338,11.5167675,-2.325304508,3.464043379,18.05712891,67.42834473,13.87591839,-1.071289063,-0.084472656,-0.452636719, 
442,1149059584,0.149165571,0.548835754,-0.126555875,0.812719166,11.46496105,-1.338503122,3.053058624,19.48541832,70.76823425,13.69524193,-1.052734375,-0.071289063,-0.440917969, 
443,1149067917,0.148174405,0.544447124,-0.125203714,0.816054821,11.63677597,-0.497492135,3.30943346,20.66999435,74.56497955,14.50497246,-1.0546875,-0.056640625,-0.455078125, 
444,1149076250,0.147311553,0.53973192,-0.123824187,0.819546402,11.71835804,0.063280284,3.438670635,19.64626503,79.64001465,13.71814632,-1.0390625,-0.048828125,-0.446777344, 
445,1149084583,0.146587566,0.534812748,-0.122517049,0.823089957,11.86685753,0.434104919,3.135591984,17.44657898,82.44621277,13.1646471,-1.041015625,-0.029296875,-0.463867188, 
446,1149092916,0.146014407,0.529531121,-0.12129572,0.826779127,12.15987396,0.446095437,4.019660473,14.89949608,87.67417145,12.97367573,-1.023925781,-0.020507813,-0.455566406, 
447,1149101249,0.145600364,0.523872137,-0.120123893,0.830619335,12.22497463,0.615313351,3.280265331,12.65336514,93.25669861,12.47629452,-1.025878906,-0.002441406,-0.474121094, 
448,1149109582,0.145317763,0.517947197,-0.119007125,0.834536254,12.47693348,0.80997479,3.107084751,10.68820667,96.93017578,11.94515896,-1.005859375,0.000976563,-0.466308594, 
449,1149117915,0.145246491,0.511505067,-0.117911734,0.838667393,13.03039932,1.006469011,3.344023466,8.238682747,104.7211609,10.96803379,-1.008789063,0.019042969,-0.486328125, 
450,1149126248,0.14554286,0.504611731,-0.116882548,0.842924953,13.56315994,0.152330548,2.21019578,4.215445042,111.2585068,8.160669327,-0.993164063,0.028320313,-0.479003906, 
451,1149134581,0.145895466,0.497321337,-0.115592308,0.847363114,15.05173302,-0.212968051,2.455716372,6.323962688,117.7458649,6.713483334,-0.997070313,0.038574219,-0.497558594, 
452,1149142914,0.146200329,0.489368767,-0.114272982,0.852106333,16.17217636,0.468590975,3.865939856,6.161221981,127.5175171,8.720967293,-0.978515625,0.043457031,-0.493164063, 
453,1149151247,0.14693594,0.480566949,-0.112954497,0.857150197,17.49661255,1.78738451,3.391339779,2.003003836,140.1825104,5.632552147,-0.979980469,0.05078125,-0.515625, 
454,1149159580,0.148622155,0.470507979,-0.111694351,0.862587988,18.1158638,3.476959467,3.080003977,-6.880084991,158.9594421,-2.441551924,-0.96484375,0.056152344,-0.512695313, 
455,1149167913,0.151303053,0.459223896,-0.110807709,0.868298531,17.58664131,4.048659801,2.933645248,-19.84648514,176.024231,-9.382061958,-0.964355469,0.063964844,-0.53515625, 
456,1149176246,0.155118972,0.447547644,-0.110096782,0.873795152,18.97218513,3.232363224,3.179487467,-30.25357628,180.7364044,-21.67861557,-0.946289063,0.062988281,-0.538085938, 
457,1149184579,0.160116017,0.434560686,-0.109238386,0.87953788,21.79437637,3.250559807,0.559318781,-38.17625046,200.0897064,-34.26334381,-0.943359375,0.064941406,-0.562011719, 
458,1149192912,0.165726885,0.419700325,-0.108213104,0.885819376,19.75686455,4.691823959,-0.67475915,-43.15072632,227.2891998,-38.69137955,-0.925292969,0.062011719,-0.564941406, 
459,1149201245,0.172567576,0.403986275,-0.107667938,0.891864955,19.12853622,5.506662846,-0.2292597,-58.38619232,237.0373688,-50.16300964,-0.916503906,0.062011719,-0.592773438, 
460,1149209578,0.180915311,0.387205422,-0.107734032,0.897627413,20.12081718,4.640375137,-0.26140371,-77.23147583,249.3844757,-64.3475647,-0.8984375,0.055175781,-0.599609375, 
461,1149217911,0.190382466,0.368686914,-0.108748518,0.903326273,19.69227409,2.136938334,1.66265583,-99.29625702,269.7468262,-70.69809723,-0.886230469,0.050292969,-0.633789063, 
462,1149226244,0.198644429,0.348769635,-0.109950557,0.909291387,17.75866508,-3.059878111,10.38295555,-98.8041687,286.2568054,-51.96928024,-0.862792969,0.044921875,-0.648925781, 
463,1149234577,0.204889819,0.32949248,-0.109063603,0.915182948,19.51221085,-5.364613056,7.716646194,-61.34515381,280.4794922,-37.95670319,-0.853515625,0.040039063,-0.684570313, 
464,1149242910,0.208655253,0.308748841,-0.106493652,0.921843827,18.66182709,2.753019333,1.11209631,-31.92920113,303.5383606,-9.991166115,-0.831054688,0.030273438,-0.69140625, 
465,1149251243,0.210673973,0.288040787,-0.105479158,0.928182602,8.793667793,3.730788708,-2.544395685,-44.57595444,294.6057739,17.77002716,-0.81640625,0.026367188,-0.725585938, 
466,1149259576,0.212173864,0.270736188,-0.106456965,0.932925999,8.729726791,2.823624134,-3.883995295,-60.42960739,238.4220428,22.73596764,-0.80078125,0.017089844,-0.731445313, 
467,1149267909,0.213085666,0.254380137,-0.107374251,0.937206507,10.25699997,-1.132562399,-4.692662716,-55.34728241,223.7321167,27.30687714,-0.786132813,0.015136719,-0.760253906, 
468,1149276242,0.212247431,0.239296421,-0.105610229,0.941559613,6.892255306,-1.626387715,-4.770049572,-10.86457348,212.9854889,38.82408905,-0.7734375,0.00390625,-0.766113281, 
469,1149284575,0.210780561,0.227322742,-0.102499299,0.945192993,3.706109762,1.578761339,-4.467967033,16.70954132,173.2367554,35.90333557,-0.763671875,-0.000488281,-0.791015625, 
470,1149292908,0.210381329,0.218556374,-0.100452393,0.947566271,2.508911371,2.953578711,-4.137179852,7.031759739,126.1697311,17.18356895,-0.758300781,-0.014160156,-0.791503906, 
471,1149301241,0.211225882,0.212748125,-0.100530423,0.948691428,1.049508929,-0.132167518,-4.131117821,-17.53177834,79.29834747,-0.339992523,-0.751953125,-0.020019531,-0.80859375, 
472,1149309574,0.211294606,0.210881084,-0.100634232,0.949081779,1.374952674,-2.215403318,-4.759830952,-5.188281536,24.73278618,2.302516222,-0.751953125,-0.03125,-0.799316406, 
473,1149317907,0.209602162,0.21227701,-0.099496387,0.949265838,4.073434353,-2.954197407,-5.927595615,25.3424778,-17.42914581,16.54523468,-0.759277344,-0.037597656,-0.811035156, 
474,1149326240,0.207114637,0.214590937,-0.096467301,0.949604332,5.76879406,-0.960685551,-5.479552746,55.18645096,-24.44907761,20.60907936,-0.764648438,-0.05078125,-0.803222656, 
475,1149334573,0.205479488,0.216887325,-0.092943579,0.949789286,3.233640194,0.383686572,-3.936845779,58.89861298,-22.28373528,7.589090824,-0.77734375,-0.065429688,-0.812011719, 
476,1149342906,0.204564869,0.22070007,-0.089452349,0.949443519,1.093792796,0.63328898,-3.21168375,59.90898514,-42.68037033,-5.157566071,-0.779785156,-0.08203125,-0.798828125, 
477,1149351239,0.203608468,0.226416156,-0.086216405,0.9486022,0.737361133,1.192439795,-3.292086363,61.4707756,-69.96709442,-7.579668522,-0.787597656,-0.094238281,-0.806640625, 
478,1149359572,0.202290431,0.233938232,-0.083474822,0.947303176,1.170500159,1.707134604,-3.509638548,60.64250565,-96.59999084,-4.739942551,-0.802734375,-0.112792969,-0.790039063, 
479,1149367905,0.200597838,0.242758989,-0.081282623,0.945632875,2.348372221,2.415975094,-3.335867643,57.89680862,-116.8356476,-0.621948481,-0.819824219,-0.128417969,-0.796386719, 
480,1149376238,0.198759273,0.252360731,-0.079728022,0.943637788,2.526365757,3.077673912,-2.873585224,51.86485672,-129.8317108,1.640017867,-0.838378906,-0.146484375,-0.774902344, 
481,1149384571,0.197088555,0.262983561,-0.079196475,0.94112891,2.067311287,3.366433859,-2.367486715,40.25387192,-147.6453247,0.484106272,-0.852539063,-0.157226563,-0.779296875, 
482,1149392904,0.195603758,0.274859369,-0.079881221,0.937981963,2.622224331,3.37811923,-2.103735209,26.51460838,-169.092804,-0.615295351,-0.875,-0.172363281,-0.76171875, 
483,1149401237,0.194182247,0.287656575,-0.081716485,0.934274614,3.299937963,3.578952074,-1.833298445,13.32351398,-186.2932892,0.395534366,-0.899902344,-0.186523438,-0.76171875, 
484,1149409570,0.192913592,0.301195115,-0.084831454,0.929983497,4.242248535,3.280007601,-1.65407145,-2.434156179,-201.1998291,1.108713388,-0.923339844,-0.204589844,-0.735839844, 
485,1149417903,0.191938192,0.315147877,-0.088899672,0.925169289,5.272124767,2.236975431,-1.43712604,-15.31676579,-211.0257568,-0.571604252,-0.954589844,-0.220214844,-0.740722656, 
486,1149426236,0.191223964,0.329353452,-0.093448408,0.919905901,6.004622459,1.534324288,-1.17695415,-22.48696518,-216.960968,-3.295179129,-0.980957031,-0.232910156,-0.7109375, 
487,1149434569,0.190807983,0.34371832,-0.09831167,0.914212525,6.146710396,0.662539899,-0.888918996,-27.90719223,-221.5463715,-6.989099026,-1.020507813,-0.24609375,-0.714355469, 
488,1149442902,0.190587848,0.358576089,-0.103122152,0.908000529,6.416659832,0.034278806,-0.735587776,-27.61790466,-229.605835,-11.71104813,-1.039550781,-0.270996094,-0.684570313, 
489,1149451235,0.190481722,0.37387234,-0.107697666,0.90129745,7.167108536,0.168661535,-0.609874368,-24.75242805,-236.9111176,-16.22002792,-1.078613281,-0.290039063,-0.677734375, 
490,1149459568,0.190625072,0.389444411,-0.112058274,0.894112945,7.782867908,0.499892294,-0.339972615,-23.40382576,-241.6818695,-22.06684685,-1.104980469,-0.314941406,-0.641601563, 
491,1149467901,0.19102253,0.4052203,-0.116200216,0.886456013,8.233233452,0.33329162,0.097404465,-22.22947311,-245.9454498,-27.93520164,-1.143066406,-0.338867188,-0.634765625, 
492,1149476234,0.191429913,0.421303988,-0.119902544,0.878339767,8.802381516,-0.02064731,0.570449233,-16.87853432,-250.889328,-32.17404556,-1.158691406,-0.374023438,-0.589355469, 
493,1149484567,0.191671774,0.437713653,-0.123079903,0.869781554,9.352888107,-0.096167125,0.969415903,-9.421240807,-256.4761658,-34.94853973,-1.205078125,-0.404296875,-0.57421875, 
494,1149492900,0.191736966,0.454445332,-0.125696629,0.860765159,10.11727333,-0.321954459,1.324698448,-1.614616036,-261.7077332,-37.93018341,-1.21875,-0.445800781,-0.517089844, 
495,1149501233,0.191462219,0.471392095,-0.127630875,0.851376534,10.87252617,-0.479432225,1.696163416,8.549844742,-265.5690613,-39.5565834,-1.264160156,-0.483398438,-0.493652344, 
496,1149509566,0.190734014,0.48851046,-0.12891078,0.841641307,11.51593018,-0.073318265,2.018887997,18.96780014,-268.6907959,-39.66666412,-1.268066406,-0.526367188,-0.427734375, 
497,1149517899,0.189737767,0.505666018,-0.129680023,0.831555486,12.05355358,-0.102687635,2.195642948,26.18316841,-270.8213196,-41.01693344,-1.309570313,-0.574707031,-0.384765625, 
498,1149526232,0.188562691,0.522892714,-0.129851207,0.821076095,12.69481564,-0.030467894,2.344918251,33.70595169,-272.9194031,-44.25923538,-1.304199219,-0.622558594,-0.305175781, 
499,1149534565,0.187300295,0.540080965,-0.129497826,0.810223103,13.42533016,0.100895882,2.542532921,39.53252029,-274.1781006,-47.97242355,-1.339355469,-0.669921875,-0.248535156, 
500,1149542898,0.185984656,0.557142496,-0.128785253,0.799009621,14.2835598,0.470752507,2.840500355,42.92728043,-274.4016418,-50.71362686,-1.311035156,-0.720703125,-0.157226563, 
501,1149551231,0.184827134,0.573876977,-0.127887592,0.787495434,15.26448345,0.625015318,3.315299988,42.41483307,-272.5707092,-54.09381104,-1.329101563,-0.765136719,-0.087402344, 
502,1149559564,0.184030816,0.590045691,-0.126900434,0.77580601,16.31197548,0.166744232,3.831296921,38.75028992,-266.7501831,-58.1332283,-1.284179688,-0.803710938,0.002929688, 
503,1149567897,0.183540359,0.605443239,-0.125883579,0.764136493,16.55956078,-0.695832312,4.690738201,34.70597076,-257.9638367,-60.27124405,-1.283691406,-0.843261719,0.076171875, 
504,1149576230,0.183122009,0.620321929,-0.124975838,0.752361476,16.35363579,-1.330795765,5.648528099,31.42076874,-253.3309021,-59.45423508,-1.212890625,-0.879394531,0.161621094, 
505,1149584563,0.182730377,0.634882927,-0.124508537,0.74029094,16.72912598,-1.6615237,6.451263905,25.37266731,-253.8358459,-56.20534134,-1.200195313,-0.903808594,0.2265625, 
506,1149592896,0.182368621,0.649080515,-0.124622196,0.727945924,17.78133965,-2.449606419,7.098385334,17.78165054,-253.7446136,-51.47306442,-1.118652344,-0.919921875,0.298828125, 
507,1149601229,0.181787252,0.662656963,-0.125189483,0.715658188,18.97690964,-3.215085506,7.892359257,13.77235889,-248.7252502,-44.04825974,-1.106445313,-0.932128906,0.354492188, 
508,1149609562,0.180692896,0.675400615,-0.126212865,0.7037431,19.1537571,-3.171346188,9.078389168,12.48311138,-238.9719849,-32.45149994,-1.015136719,-0.943359375,0.418945313, 
509,1149617895,0.1791109,0.687428772,-0.127832055,0.692112505,18.73418808,-2.745547533,10.39296246,9.997853279,-231.9129028,-20.27425003,-1.008789063,-0.943359375,0.462890625, 
510,1149626228,0.177193984,0.698719978,-0.129999921,0.680802763,18.71949768,-1.692266107,11.68233299,6.663005352,-223.6444855,-9.796545982,-0.92578125,-0.9375,0.513671875, 
511,1149634561,0.175186366,0.709033728,-0.132619023,0.670069337,18.65388298,-0.36034447,12.83560658,1.986678958,-210.3787689,-1.476974249,-0.927734375,-0.931640625,0.546875, 
512,1149642894,0.173521012,0.718142688,-0.135446474,0.660163522,17.63154793,1.28911829,14.71992302,-4.680588245,-190.9483185,1.597751975,-0.846679688,-0.922363281,0.587890625, 
513,1149651227,0.172852084,0.72610718,-0.138272002,0.650977373,16.13085365,2.09039402,16.76046753,-15.87893867,-171.7259827,-3.625432014,-0.857910156,-0.916503906,0.611328125, 
514,1149659560,0.173037291,0.732897758,-0.140783787,0.642727613,15.1484623,3.100238323,18.75463867,-22.62233543,-149.396347,-9.937421799,-0.778320313,-0.90625,0.640136719, 
515,1149667893,0.174577981,0.73838228,-0.14302218,0.635498762,13.86903763,3.217911959,20.36009026,-34.98280716,-124.3827896,-19.72361374,-0.790527344,-0.904296875,0.653320313, 
516,1149676226,0.17783533,0.74272275,-0.144545838,0.629161298,13.14732075,0.062527753,21.17223549,-47.14811707,-100.19104,-37.58406067,-0.717773438,-0.90234375,0.667480469, 
517,1149684559,0.18189247,0.745850146,-0.145006642,0.624175966,13.44515324,-4.264199734,21.38364983,-46.4139328,-71.7485733,-49.65170288,-0.729003906,-0.903808594,0.6640625, 
518,1149692892,0.184886694,0.747744858,-0.144650117,0.621104538,13.78549099,-7.597548008,21.10099983,-27.7635231,-41.6074791,-41.65122986,-0.659179688,-0.900878906,0.6640625, 
519,1149701225,0.185905695,0.748317122,-0.14390792,0.620283067,12.97428417,-8.398822784,20.54421234,-3.045047283,-10.13012791,-20.40889359,-0.69140625,-0.900390625,0.662109375, 
520,1149709558,0.185082301,0.747866392,-0.142733529,0.621343255,11.91784382,-6.927589417,19.50070953,20.71576881,15.3726368,-2.31483674,-0.642089844,-0.893066406,0.670410156, 
521,1149717891,0.183435529,0.74649179,-0.141149491,0.623841345,11.62312794,-4.329749107,17.84385681,33.14831161,37.52830505,5.988864422,-0.694335938,-0.89453125,0.671875, 
522,1149726224,0.18177256,0.74418819,-0.139169112,0.62751478,10.88173294,-3.25612092,15.53023148,36.67757034,58.43828583,6.801695824,-0.654785156,-0.892578125,0.673828125, 
523,1149734557,0.180004597,0.741274893,-0.136762351,0.631985843,10.10395527,-2.647226572,12.92685699,41.40882874,72.82019806,6.531350136,-0.718261719,-0.893066406,0.666992188, 
524,1149742890,0.178022698,0.738002777,-0.134116396,0.636924148,9.780241013,-2.180930138,10.58749485,45.68484116,80.76508331,7.752297401,-0.689453125,-0.892089844,0.671386719, 
525,1149751223,0.172496781,0.733233333,-0.133591682,0.644023895,16.21557236,-5.300823212,7.779848099,63.36784744,104.2132645,68.40533447,-0.755859375,-0.891113281,0.662597656, 
526,1149759556,0.164244995,0.726947546,-0.131576493,0.653649747,4.161931038,-4.520216942,6.903896809,105.1276093,141.4912567,86.26382446,-0.7578125,-0.883789063,0.666503906, 
527,1149767889,0.157785222,0.722018838,-0.131469131,0.660687506,10.02816868,-4.373545647,4.801618099,68.41719818,102.5048218,80.95986938,-0.836914063,-0.883300781,0.665039063, 
528,1149776222,0.151137769,0.717025697,-0.1254825,0.668794096,23.99614906,-10.28420353,-10.65302563,125.5265732,125.9550171,26.68301964,-0.828125,-0.873046875,0.669921875, 
529,1149784555,0.146469325,0.713682652,-0.11832945,0.674686551,30.91671181,11.94975185,-23.75393867,116.313736,94.95172882,-10.42589283,-0.883300781,-0.863769531,0.666503906, 
530,1149792888,0.139612302,0.701496601,-0.1156158,0.689234376,16.33978081,-1.000856996,-9.756458282,92.92892456,249.2953186,85.22406769,-0.877441406,-0.861328125,0.666503906, 
531,1149801221,0.130848393,0.69453907,-0.11113286,0.698672831,6.130895138,2.127919197,1.652135849,129.9578094,150.9641418,68.15697479,-0.9609375,-0.849121094,0.65625, 
532,1149809554,0.124125727,0.686961472,-0.108426616,0.707757175,10.6780405,-7.23538065,9.827789307,91.76116943,153.3372498,65.78833008,-0.953613281,-0.83984375,0.661132813, 
533,1149817887,0.118249454,0.681272864,-0.103327319,0.714987874,7.081028461,-1.324677944,15.12916756,107.4883423,122.9111023,28.99728584,-1.026367188,-0.830566406,0.649902344, 
534,1149826220,0.113519043,0.677242756,-0.098609164,0.72023046,7.864150047,-1.306183696,7.685132027,92.90427399,88.85372925,15.67487621,-1.008300781,-0.83203125,0.658203125, 
535,1149834553,0.1095924,0.674119294,-0.093967617,0.724377394,10.5428915,0.905870676,-1.072712779,84.56210327,70.76879883,5.52559948,-1.062988281,-0.829101563,0.646484375, 
536,1149842886,0.106162868,0.670443296,-0.089944534,0.728797078,9.483801842,1.310623884,-3.183199167,73.34926605,78.36486816,7.401577473,-1.046875,-0.830078125,0.652832031, 
537,1149851219,0.102818482,0.666511834,-0.086659662,0.733267128,9.060949326,1.192011595,-0.108836606,64.81931305,80.56433105,13.77463436,-1.105957031,-0.834472656,0.640136719, 
538,1149859552,0.100522429,0.662159383,-0.084421366,0.737775862,9.831839561,1.176559091,1.743987203,44.12393951,84.79421997,13.32697678,-1.08203125,-0.838867188,0.635253906, 
539,1149867885,0.099249378,0.657886863,-0.083375871,0.741878033,8.089062691,0.698737264,2.571852207,22.3288002,79.95868683,13.17964458,-1.133789063,-0.834960938,0.606933594, 
540,1149876218,0.098499008,0.654277802,-0.082886815,0.745216727,9.341430664,0.501820207,1.223981142,11.97686863,65.98983002,11.05682755,-1.12109375,-0.842773438,0.603515625, 
541,1149884551,0.097477332,0.651021779,-0.082453832,0.748244643,8.023031235,-0.309326887,0.486182183,13.94396114,59.32318497,13.54025555,-1.169921875,-0.84375,0.571289063, 
542,1149892884,0.095725015,0.648312151,-0.081591405,0.750913441,9.283866882,1.125034213,0.522235215,25.25250053,50.10043716,16.09230804,-1.154785156,-0.845214844,0.574707031, 
543,1149901217,0.09360949,0.645427108,-0.080796629,0.753746033,9.406031609,1.868751168,2.362383127,27.72203827,53.0094986,20.87822342,-1.2109375,-0.849121094,0.546386719, 
544,1149909550,0.091817975,0.642832994,-0.080551997,0.756205201,9.429913521,2.691389084,3.230704546,19.12422371,46.20855331,21.58493614,-1.201660156,-0.849121094,0.550292969, 
545,1149917883,0.090702638,0.640311003,-0.081229158,0.758403838,10.14223385,1.155318499,2.651608229,3.341498852,42.86375427,22.30744362,-1.25,-0.845703125,0.523925781, 
546,1149926216,0.090108112,0.638042927,-0.082078859,0.760292411,8.611670494,-1.233086467,2.578940153,-3.053708076,37.72645569,17.71284676,-1.239746094,-0.8515625,0.517089844, 
547,1149934549,0.089969903,0.636408746,-0.082369432,0.761645913,7.880274773,-1.812747717,2.364487648,-1.049800038,27.7348671,6.669861317,-1.290039063,-0.850097656,0.493164063, 
548,1149942882,0.09034346,0.635076284,-0.082380794,0.762711883,8.390910149,-1.502759576,1.716289282,-2.538397551,22.86231613,-1.840255499,-1.267578125,-0.852050781,0.490722656, 
549,1149951215,0.090998359,0.633741558,-0.082297012,0.76375252,8.112883568,-1.95963347,2.225932837,-4.046845913,23.22690964,-5.643126011,-1.320800781,-0.854980469,0.461914063, 
550,1149959548,0.091871805,0.632836103,-0.081887975,0.764442444,9.337568283,-1.084587455,1.58590126,-2.372775555,16.19220924,-11.70860481,-1.298339844,-0.858886719,0.458007813, 
551,1149967881,0.092788033,0.631680191,-0.081592754,0.765318871,10.688097,0.407777786,2.321172714,-4.070538998,20.47540283,-10.63933849,-1.347167969,-0.86328125,0.428710938, 
552,1149976214,0.093769714,0.630561292,-0.081385091,0.76614356,11.26745605,0.399115115,2.364738941,-5.550760746,19.48015785,-10.69023228,-1.32421875,-0.86328125,0.422363281, 
553,1149984547,0.094716236,0.629259467,-0.081414714,0.767093778,10.57998657,0.157089666,2.654075623,-7.862113953,22.26681137,-7.879839897,-1.368164063,-0.864746094,0.387695313, 
554,1149992880,0.095776238,0.628200412,-0.0814512,0.767826021,10.10028458,0.051882431,1.176780105,-8.829024315,17.82570839,-9.584311485,-1.349609375,-0.866210938,0.382324219, 
555,1150001213,0.096617565,0.626848578,-0.081687473,0.768799841,10.23416233,0.476276338,2.784577847,-9.178866386,22.6095047,-4.892014027,-1.400878906,-0.864257813,0.345214844, 
556,1150009546,0.097409293,0.625746667,-0.082005493,0.769563437,9.264191628,0.092071809,1.895413518,-9.503166199,17.88241768,-4.237697601,-1.383300781,-0.862304688,0.331542969, 
557,1150017879,0.098042265,0.624649167,-0.082450278,0.770326674,9.803851128,0.466429025,2.056878328,-9.4894104,17.59159279,-1.458244443,-1.432617188,-0.860839844,0.298828125, 
558,1150026212,0.09847413,0.6234864,-0.082864687,0.77116847,9.426307678,0.14400512,3.28776145,-7.420677185,18.66698265,0.580021739,-1.414550781,-0.852539063,0.283691406, 
559,1150034545,0.098860465,0.622585833,-0.083376974,0.77179116,9.16421032,0.122216791,2.234735012,-7.981268883,13.92568111,1.318454623,-1.460449219,-0.848632813,0.242675781, 
560,1150042878,0.099147208,0.621679604,-0.08402314,0.772414625,9.566714287,-0.220294952,1.705096126,-8.542016983,13.59553909,3.516745806,-1.4375,-0.838378906,0.227050781, 
561,1150051211,0.099212199,0.620750129,-0.084590234,0.773091555,9.341005325,-0.127778709,2.637592316,-5.791686535,14.2544136,5.30812788,-1.478027344,-0.832519531,0.177246094, 
562,1150059544,0.099202894,0.619995356,-0.085226767,0.773628354,9.606323242,-0.138996288,2.336868763,-5.808926105,10.91810989,6.284133911,-1.452636719,-0.821777344,0.159667969, 
563,1150067877,0.099091187,0.619275928,-0.085979618,0.77413547,10.04563618,-0.203037992,2.255050421,-6.171699047,10.11041355,8.294491768,-1.493164063,-0.808105469,0.113769531, 
564,1150076210,0.098987915,0.618564367,-0.086754382,0.774630964,9.646239281,-0.26857245,2.408640862,-6.465238094,9.810522079,8.355760574,-1.466308594,-0.799804688,0.092285156, 
565,1150084543,0.099021673,0.617935359,-0.087459996,0.77504921,9.648421288,-0.661342084,2.460291624,-6.88838625,8.629245758,6.115387917,-1.491210938,-0.782226563,0.048339844, 
566,1150092876,0.099173106,0.61736536,-0.088109888,0.775410235,9.634030342,-1.046572804,2.397940397,-7.269473553,7.638742924,4.227181435,-1.461914063,-0.774414063,0.027832031, 
567,1150101209,0.09941899,0.616838753,-0.088688657,0.775731742,9.117351532,-0.931736171,2.017715693,-7.314068794,7.14415741,2.522195578,-1.486328125,-0.754394531,-0.015625, 
568,1150109542,0.099725738,0.616277575,-0.089111947,0.776089847,8.958440781,-0.846156299,2.438039303,-6.166357994,8.020996094,0.63162142,-1.4453125,-0.747070313,-0.030761719, 
569,1150117875,0.100081347,0.615823209,-0.089541182,0.776355386,9.228747368,-1.25096786,2.242316246,-6.620512486,6.24002552,-0.083092593,-1.465332031,-0.729492188,-0.0703125, 
570,1150126208,0.100339323,0.615364909,-0.089876406,0.776646733,9.827322006,-0.704081595,2.355221987,-4.743731499,6.419146538,0.190172926,-1.421875,-0.71875,-0.077636719, 
571,1150134541,0.100526303,0.614848793,-0.090248689,0.776988089,9.731014252,0.308989555,2.69265008,-4.575445652,7.407752514,1.414943218,-1.438476563,-0.702148438,-0.112792969, 
572,1150142874,0.10080865,0.614353955,-0.090858087,0.777271807,10.15904617,0.232765153,2.613143444,-7.94453907,6.401370049,2.281165838,-1.399902344,-0.69140625,-0.115722656, 
573,1150151207,0.101087734,0.613818407,-0.091630317,0.777567923,10.08141804,0.166680828,2.392015219,-9.711074829,6.795264721,3.77304101,-1.419921875,-0.672851563,-0.146972656, 
574,1150159540,0.101385474,0.613156438,-0.092507467,0.777947545,9.903417587,0.390443891,2.218287945,-11.04885769,8.648482323,4.721485615,-1.375488281,-0.660644531,-0.148925781, 
575,1150167873,0.101733126,0.612399101,-0.093527794,0.778376579,9.770563126,0.334015429,2.459193468,-13.0846262,10.02983284,5.599644661,-1.397949219,-0.639160156,-0.176269531, 
576,1150176206,0.102119409,0.611577153,-0.094764933,0.778822422,9.573254585,-0.236050367,2.527322769,-15.78285599,10.53212929,7.10632658,-1.361816406,-0.625,-0.172851563, 
577,1150184539,0.102490462,0.610684097,-0.096087031,0.779312253,9.726714134,-0.108418845,2.131705761,-16.62226105,11.60375214,8.149747849,-1.3828125,-0.606933594,-0.205078125, 
578,1150192872,0.102793239,0.609578907,-0.09745568,0.779967427,9.860869408,0.391388178,2.973093033,-16.60528374,15.0322752,9.775742531,-1.34375,-0.588378906,-0.199707031, 
579,1150201205,0.103195667,0.608444333,-0.099054299,0.780598521,9.866122246,-0.075349301,2.472326756,-20.0053196,15.02925301,10.64957333,-1.369140625,-0.565917969,-0.227539063, 
580,1150209538,0.103519753,0.607106745,-0.100690335,0.781387448,10.10913944,-0.38021332,2.47909832,-19.81667328,18.2979908,12.29313946,-1.337402344,-0.549804688,-0.224121094, 
581,1150217871,0.103862524,0.605640292,-0.102311589,0.782268882,10.11792469,-0.254231423,2.583707333,-19.87558937,20.57394981,12.29175758,-1.360839844,-0.527832031,-0.254882813, 
582,1150226204,0.104268067,0.604067624,-0.103971288,0.78321147,10.35861969,-0.635143399,2.563328505,-20.8676548,22.1889019,12.1618166,-1.331542969,-0.512695313,-0.255371094, 
583,1150234537,0.104721606,0.602351844,-0.105561867,0.784259021,10.40500259,-0.69711107,2.612721682,-20.58864212,24.84267044,11.43775463,-1.349121094,-0.486816406,-0.2890625, 
584,1150242870,0.105233267,0.600533247,-0.106983945,0.785391808,10.79919529,-0.23714444,2.659597158,-19.26686668,26.91358376,9.676132202,-1.322753906,-0.46875,-0.286621094, 
585,1150251203,0.106167048,0.598559499,-0.108042687,0.786626935,11.07859325,0.915256977,3.278128386,-18.91224098,30.64958382,2.502757311,-1.340332031,-0.443359375,-0.319824219, 
586,1150259536,0.109830081,0.595493138,-0.101690345,0.789293706,11.92159843,10.67661667,2.769408703,39.33814621,69.06564331,-84.31949615,-1.306640625,-0.435058594,-0.316894531, 
587,1150267869,0.114446327,0.594669461,-0.107184425,0.788531661,12.28662109,-0.597332776,1.640583038,-98.47331238,0.149473161,-5.959536076,-1.311035156,-0.41796875,-0.353027344, 
588,1150276202,0.11650686,0.590984941,-0.10589727,0.791169107,6.095368385,1.463079572,3.143008947,-3.529477596,65.81239319,-24.13337517,-1.278320313,-0.400878906,-0.352050781, 
589,1150284535,0.119046919,0.588389218,-0.108554699,0.792364597,13.61613464,-3.860037327,1.822532535,-50.69968414,36.68894196,-1.190579414,-1.282226563,-0.37890625,-0.385253906, 
590,1150292868,0.121204741,0.585509479,-0.109822311,0.793994308,7.930397034,0.791722834,3.149183512,-32.27664566,44.9437561,-7.132315636,-1.252441406,-0.362304688,-0.382324219, 
591,1150301201,0.123106234,0.582459927,-0.111565053,0.795699954,12.03502941,-5.28521347,2.006645918,-35.57306671,46.28760147,-0.128238052,-1.252929688,-0.333984375,-0.41796875, 
592,1150309534,0.124058686,0.579130948,-0.11308945,0.797764122,10.30024147,-4.032723904,2.573943138,-25.51551437,51.07658386,9.5390625,-1.229980469,-0.319335938,-0.411621094, 
593,1150317867,0.124764882,0.57574898,-0.1140773,0.799958289,10.71092606,-4.655012608,2.990671635,-17.54615784,53.27930832,8.275815964,-1.228515625,-0.295898438,-0.436035156, 
594,1150326200,0.125138938,0.572317183,-0.114688262,0.802271724,10.93854427,-4.928506851,2.468472242,-10.66953564,54.8489418,9.218600273,-1.201171875,-0.279785156,-0.431640625, 
595,1150334533,0.125028536,0.568730235,-0.114817694,0.8048172,10.84027386,-4.174813747,2.219399214,-1.444416761,58.50184631,11.42750549,-1.197753906,-0.260742188,-0.455078125, 
596,1150342866,0.124650866,0.564969301,-0.114530161,0.807560921,11.10091496,-3.496569633,2.411248446,5.294929028,62.22430038,11.72107601,-1.17578125,-0.245605469,-0.449707031, 
597,1150351199,0.124120787,0.561089337,-0.113961503,0.810423017,11.26257992,-2.766013384,3.228740454,9.56374073,64.75577545,11.63932133,-1.173828125,-0.226074219,-0.471191406, 
598,1150359532,0.123453721,0.557011724,-0.113152795,0.813445389,11.45219898,-2.626899242,2.83953023,13.22559643,68.34786987,11.87492561,-1.14453125,-0.213378906,-0.464355469, 
599,1150367865,0.12256898,0.552771926,-0.112214543,0.816595316,11.20615387,-1.652667761,2.402585506,16.24868774,71.06140137,13.80756092,-1.145507813,-0.1953125,-0.484375, 
600,1150376198,0.121734902,0.548227847,-0.11107149,0.819932818,11.58812714,-1.059503317,3.630118847,17.96055603,76.28864288,12.44168377,-1.124511719,-0.183105469,-0.482421875, 
601,1150384531,0.120994851,0.543596685,-0.110043585,0.823257685,11.31812668,-0.688381195,2.494418144,15.76784039,77.16555786,12.38866329,-1.120117188,-0.162597656,-0.499511719, 
602,1150392864,0.12019857,0.538672864,-0.108892128,0.826756477,11.75841236,-0.451821685,4.145293236,17.38990784,81.86563873,12.80782604,-1.102539063,-0.148925781,-0.493164063, 
603,1150401197,0.119587339,0.533363998,-0.107697211,0.830435514,12.0558939,0.034181811,4.327830791,16.12016487,87.96283722,11.28219032,-1.099121094,-0.134765625,-0.509277344, 
604,1150409530,0.119127691,0.527884245,-0.10666693,0.834127605,11.61506748,0.311509609,2.975257158,12.89129066,89.92965698,11.01308727,-1.083496094,-0.126464844,-0.499023438, 
605,1150417863,0.118789062,0.521915972,-0.105562538,0.838062882,12.25524139,0.120858356,4.112896919,12.39472008,97.63235474,10.22110462,-1.078125,-0.108398438,-0.520996094, 
606,1150426196,0.118650183,0.515546501,-0.104499072,0.842148364,12.28466988,0.887011945,3.759362698,10.07029533,103.5247269,9.021075249,-1.057617188,-0.097167969,-0.513671875, 
607,1150434529,0.118890643,0.508739054,-0.103609085,0.846353769,12.5832119,1.162606955,3.366303921,4.811966896,109.7400208,6.702932358,-1.053222656,-0.082519531,-0.534179688, 
608,1150442862,0.119591914,0.50137049,-0.102759153,0.850744188,13.74423409,0.261937648,2.384796619,0.49072355,118.135376,2.705229521,-1.03515625,-0.075195313,-0.525878906, 
609,1150451195,0.120410435,0.493442953,-0.101826765,0.85536325,15.36996937,0.330047369,2.822343588,0.026190924,126.5746384,1.947464705,-1.032226563,-0.05859375,-0.548339844, 
610,1150459528,0.121169806,0.484817773,-0.100899816,0.86028415,16.58710861,1.408342004,5.117959976,-0.355915666,136.7233429,4.138137817,-1.01171875,-0.051269531,-0.541503906, 
611,1150467861,0.122470483,0.475257188,-0.100157499,0.865505636,17.58682442,2.891363382,3.39099431,-7.30191803,150.2516327,0.782748103,-1.012695313,-0.040039063,-0.5625, 
612,1150476194,0.124712579,0.464792192,-0.099713042,0.870902956,17.4575634,4.410776138,2.051669121,-18.28018761,162.9582367,-6.94305706,-0.995117188,-0.033203125,-0.563476563, 
613,1150484527,0.127818391,0.453447104,-0.099566326,0.876432776,18.33637428,3.466995716,3.329322338,-28.69579315,175.0222168,-13.94142532,-0.994628906,-0.0234375,-0.583007813, 
614,1150492860,0.131830677,0.441151708,-0.099448606,0.882108629,20.50054359,3.589873314,2.279741049,-36.16582489,188.5893555,-23.13259315,-0.977050781,-0.020507813,-0.585449219, 
615,1150501193,0.136791229,0.427479655,-0.099455461,0.888064086,21.25079346,4.620118618,0.311708391,-45.54571915,208.0466766,-31.48628426,-0.969238281,-0.014648438,-0.609863281, 
616,1150509526,0.14282608,0.412350804,-0.099528477,0.894237936,20.88513565,6.227683544,-1.136234283,-55.12201691,228.4975128,-41.80834579,-0.953125,-0.013183594,-0.614746094, 
617,1150517859,0.150238261,0.395911485,-0.10008695,0.900369406,20.55230713,7.408059597,-1.330058098,-71.52522278,245.2791138,-54.28985596,-0.941894531,-0.011230469,-0.640625, 
618,1150526192,0.159088016,0.377988458,-0.101913676,0.906327426,20.20889282,5.602889061,0.057466179,-98.38414764,262.1228333,-63.4881134,-0.921386719,-0.017578125,-0.647460938, 
619,1150534525,0.168245301,0.358501583,-0.104361579,0.912293315,19.69863319,0.32159397,4.412304401,-111.1136475,280.677063,-61.89657593,-0.911132813,-0.014160156,-0.682617188, 
620,1150542858,0.176282361,0.337810367,-0.106277905,0.918429971,17.93408966,-5.057961464,10.17588806,-101.4967651,296.3338928,-48.31237411,-0.890136719,-0.018554688,-0.693847656, 
621,1150551191,0.182236075,0.317420781,-0.105340511,0.924628139,18.06191444,-2.877728701,4.341015816,-54.92020798,296.5999451,-35.57368851,-0.874511719,-0.018066406,-0.728027344, 
622,1150559524,0.186230302,0.296028405,-0.104712188,0.930978298,13.73981285,3.376924515,-1.051287889,-52.63077545,306.5013123,-7.469722271,-0.856933594,-0.024414063,-0.738769531, 
623,1150567857,0.18963097,0.275954008,-0.106319614,0.936261535,7.501900196,3.954336643,-3.779612541,-76.95706177,278.5999146,4.597453117,-0.843261719,-0.025390625,-0.770019531, 
624,1150576190,0.192706138,0.258245528,-0.109391198,0.940322876,8.385861397,0.2929461,-4.559713364,-90.23070526,239.3192596,7.713351727,-0.821777344,-0.028320313,-0.777832031, 
625,1150584523,0.194401264,0.24166058,-0.111092858,0.944175124,7.27721262,-4.242238522,-3.867113829,-64.90920258,225.4822083,18.43524742,-0.812011719,-0.023925781,-0.806152344, 
626,1150592856,0.194150344,0.228028968,-0.110243089,0.947710156,3.556285381,-5.132220745,-2.119392872,-17.94722748,190.0601501,29.87948608,-0.80078125,-0.029785156,-0.8125, 
627,1150601189,0.192801043,0.218903765,-0.107071251,0.950496852,2.691397905,-2.475627899,-2.256752491,26.70324135,133.3779755,28.06635284,-0.792480469,-0.036621094,-0.827636719, 
628,1150609522,0.191865653,0.213102713,-0.103667304,0.952380061,2.413817883,1.252920747,-3.611725092,35.94472885,88.57778168,14.68304539,-0.788574219,-0.051269531,-0.821777344, 
629,1150617855,0.191682786,0.210101068,-0.101154596,0.953353465,1.478380919,1.961333156,-4.739263058,28.18525887,47.8240242,1.033434629,-0.788574219,-0.058105469,-0.838867188, 
630,1150626188,0.191835284,0.209998965,-0.101304971,0.953329384,-0.882999837,-0.741001546,-4.702381611,-1.473958373,0.525424778,-2.323736191,-0.792480469,-0.070800781,-0.826171875, 
631,1150634521,0.190435469,0.214359149,-0.099497788,0.952829838,4.222659588,-4.029016972,-6.48498106,39.8139267,-56.4954071,4.893633366,-0.803710938,-0.076171875,-0.834960938, 
632,1150642854,0.188152492,0.217918351,-0.095046081,0.95293045,7.019673824,-0.013771477,-5.049517632,75.77296448,-38.36572647,11.36196041,-0.812011719,-0.095703125,-0.813964844, 
633,1150651187,0.186675519,0.220913395,-0.091211736,0.952905953,0.927512586,0.997288167,-2.701617002,63.66240311,-32.0396347,3.039565325,-0.8203125,-0.106445313,-0.824707031, 
634,1150659520,0.185775995,0.226777762,-0.087857477,0.952018976,0.136793032,0.244849533,-2.792581081,61.87294388,-72.6058197,-8.891349792,-0.833984375,-0.126464844,-0.801757813, 
635,1150667853,0.184551388,0.234204873,-0.084550977,0.950757504,1.698934793,2.277455807,-2.9343431,65.83010864,-94.91010284,-7.32218504,-0.850585938,-0.137207031,-0.809082031, 
636,1150676186,0.183094889,0.24267818,-0.082508706,0.949092031,1.287232757,3.731443405,-2.458865881,52.21601868,-113.2085114,-2.445437193,-0.865234375,-0.155761719,-0.787597656, 
637,1150684519,0.181699693,0.252269477,-0.082107753,0.946891546,2.020174742,3.45661068,-2.20503521,32.81488419,-133.8083954,-0.399588764,-0.881347656,-0.169433594,-0.791015625, 
638,1150692852,0.180596828,0.262752444,-0.08271727,0.944194674,2.4176898,3.042736769,-1.959368467,20.29101372,-149.1743774,-2.927662611,-0.8984375,-0.180664063,-0.765625, 
639,1150701185,0.179988563,0.274124324,-0.084450737,0.940918624,2.567615032,2.525973558,-1.565064311,5.477852345,-165.2006683,-7.757639408,-0.921875,-0.197753906,-0.767089844, 
640,1150709518,0.179612696,0.286414504,-0.087152869,0.937075257,3.211947441,1.594983101,-1.320028424,-6.348749161,-181.1867371,-9.563890457,-0.940917969,-0.210449219,-0.743652344, 
641,1150717851,0.179100528,0.299418896,-0.090480886,0.932783067,4.2126894,0.773104787,-1.161265135,-12.62018204,-194.0325012,-7.326005459,-0.972167969,-0.222167969,-0.74609375, 
642,1150726184,0.178614512,0.312842637,-0.094042845,0.928106844,4.88297081,0.276037902,-1.011730194,-15.20367146,-201.3692627,-8.149309158,-0.991210938,-0.237792969,-0.715332031, 
643,1150734517,0.178430423,0.326621681,-0.09769322,0.923004329,5.148717403,-0.032367397,-0.705757201,-17.27944946,-207.7331696,-13.14653778,-1.029785156,-0.248046875,-0.711914063, 
644,1150742850,0.178603902,0.340862006,-0.101337329,0.917411804,5.587047577,-0.056068514,-0.498478621,-18.36930275,-215.1229095,-19.51158905,-1.046875,-0.26953125,-0.677246094, 
645,1150751183,0.179097205,0.355438858,-0.105014704,0.911350191,6.256967068,-0.256445944,-0.36773783,-20.07906532,-221.3744507,-25.03538513,-1.08203125,-0.286621094,-0.673828125, 
646,1150759516,0.179746687,0.37029469,-0.108490691,0.904877126,6.765446186,-0.439655304,-0.245149001,-18.27188301,-225.9828949,-29.38426018,-1.102050781,-0.30859375,-0.631347656, 
647,1150767849,0.180499539,0.385481954,-0.11167407,0.897971392,7.134982586,-0.323502719,-0.087104842,-14.93807602,-231.6134338,-33.73371887,-1.136230469,-0.33203125,-0.625, 
648,1150776182,0.181191504,0.40102753,-0.114682943,0.890614629,7.747337341,-0.172526896,0.178815275,-12.29825211,-237.9057922,-35.55765152,-1.157714844,-0.362792969,-0.575683594, 
649,1150784515,0.181643188,0.416804194,-0.117470987,0.882881999,8.505430222,-0.314005643,0.420559645,-8.249578476,-242.8216095,-35.15258789,-1.19140625,-0.387207031,-0.562988281, 
650,1150792848,0.18184793,0.432799518,-0.119910926,0.87477845,8.938864708,-0.290119201,0.695253134,-2.684544325,-246.9429169,-35.40383911,-1.199707031,-0.419921875,-0.509765625, 
651,1150801181,0.181934327,0.449099839,-0.122062996,0.866204321,9.56073761,-0.358441949,1.029305458,1.493562341,-253.0780182,-37.39965439,-1.240234375,-0.450195313,-0.483398438, 
652,1150809514,0.181917503,0.465606123,-0.123802274,0.857198954,10.47135448,-0.809402943,1.25437963,6.80893898,-257.1418762,-40.11423492,-1.243652344,-0.486816406,-0.421386719, 
653,1150817847,0.181652158,0.482191622,-0.124972455,0.847865403,11.14334297,-1.172931314,1.556625962,14.77996922,-259.3707275,-41.81497574,-1.279785156,-0.525390625,-0.385253906, 
654,1150826180,0.180998757,0.498897046,-0.125515223,0.838204682,11.64408493,-1.414259553,1.761757493,24.36761284,-261.8392639,-42.4470253,-1.27734375,-0.5625,-0.312988281, 
655,1150834513,0.179961056,0.515694916,-0.125450298,0.828211844,12.41141605,-1.361246705,1.922538519,33.70646667,-264.5357666,-43.19903564,-1.308105469,-0.606445313,-0.267089844, 
656,1150842846,0.178589284,0.532455504,-0.12477918,0.817940772,13.24259567,-1.295650601,2.086051941,42.36702728,-264.9565125,-44.29894257,-1.291015625,-0.646972656,-0.179199219, 
657,1150851179,0.176907539,0.549034476,-0.123539403,0.807466924,13.91429901,-1.145882964,2.404298067,50.27786636,-263.7385254,-45.18136215,-1.311523438,-0.684570313,-0.121582031, 
658,1150859512,0.174962327,0.565448701,-0.121772885,0.79676044,14.49247074,-0.783159852,2.823769569,57.31312943,-262.6249084,-46.49190521,-1.272949219,-0.719726563,-0.032226563, 
659,1150867845,0.172906905,0.581652522,-0.119661674,0.785789073,15.03594685,-0.397500396,3.21411562,61.00585556,-261.93927,-48.27852249,-1.28125,-0.756835938,0.03125, 
660,1150876178,0.170826524,0.597581804,-0.117419586,0.774549484,16.05310059,-0.117114052,3.742626429,61.49204254,-260.644043,-49.22160339,-1.226074219,-0.784667969,0.12109375, 
661,1150884511,0.168677956,0.612877488,-0.115157925,0.763326585,16.91357231,-0.036167912,4.560647964,60.83301926,-254.0252533,-47.61262131,-1.224121094,-0.80859375,0.188476563, 
662,1150892844,0.166554272,0.627451301,-0.113043658,0.752187192,16.75138283,0.497409284,5.644730091,57.50356293,-245.8439941,-45.28298187,-1.15625,-0.827148438,0.270019531, 
663,1150901177,0.164800644,0.641439319,-0.111447141,0.740929067,16.58999634,0.568896651,6.539362907,47.45742416,-241.6195221,-44.01605606,-1.143066406,-0.842285156,0.323730469, 
664,1150909510,0.163374156,0.654941797,-0.110431232,0.7294963,17.27836609,0.519956648,7.091320515,37.26877594,-238.8367157,-41.86369324,-1.0625,-0.850585938,0.395996094, 
665,1150917843,0.162248135,0.667750239,-0.110199668,0.718081534,17.81752968,0.365872175,7.672859192,25.17977142,-233.2073059,-36.73245621,-1.0546875,-0.854980469,0.440429688, 
666,1150926176,0.161269978,0.679842412,-0.110774383,0.706778169,17.69709015,0.20591493,8.513879776,14.4045105,-226.5092468,-29.44548607,-0.976074219,-0.852539063,0.497558594, 
667,1150934509,0.160542428,0.691306055,-0.112181336,0.695512354,17.23561859,0.154584244,9.26548481,2.662908554,-221.6893005,-23.0707798,-0.972167969,-0.849121094,0.531738281, 
668,1150942842,0.160170525,0.702225804,-0.114269339,0.684227109,17.35217857,0.566733003,10.05815506,-8.49439621,-217.4705048,-19.18853378,-0.889648438,-0.843261719,0.577148438, 
669,1150951175,0.160435349,0.71231252,-0.11701332,0.673185706,17.62698174,1.191644192,11.5157547,-22.2362709,-207.8757324,-17.01074028,-0.887695313,-0.844726563,0.6015625, 
670,1150959508,0.161640957,0.721325815,-0.120265901,0.662644327,17.33424187,1.192162514,13.05917072,-37.74417114,-192.5239258,-17.89738083,-0.803222656,-0.835449219,0.636230469, 
671,1150967841,0.163670897,0.729107857,-0.123861179,0.652895093,16.62783623,1.215624928,14.56036282,-50.45140457,-172.96698,-18.22249222,-0.806152344,-0.83984375,0.645996094, 
672,1150976174,0.166226357,0.735636413,-0.127502277,0.644167066,15.8214798,1.182475924,15.9489193,-57.22127151,-150.5887299,-18.03793526,-0.729492188,-0.831542969,0.661621094, 
673,1150984507,0.169276074,0.740866184,-0.130834937,0.636667252,14.61416245,1.699909687,17.38748741,-60.29649353,-125.1763077,-20.46192932,-0.740234375,-0.836914063,0.666503906, 
674,1150992840,0.17353037,0.744875789,-0.133601308,0.630236447,13.3288393,1.08983326,18.58253288,-68.5353241,-100.0673676,-32.08079147,-0.661132813,-0.830078125,0.670898438, 
