PacketCounter,SampleTimeFine,Quat_W,Quat_X,Quat_Y,Quat_Z,Acc_X,Acc_Y,Acc_Z,Gyr_X,Gyr_Y,Gyr_Z,Mag_X,Mag_Y,Mag_Z,
0,1210782115,0.968194783,0.085632347,-0.234792575,-0.011809003,0,0,0,0,0,0,0.349853516,0.777832031,-0.689941406, 
1,1210790448,0.973067045,0.08271388,-0.215060875,-0.006985732,9.604263306,1.550971508,12.99225426,-32.45129776,282.7756958,51.0958252,0.437255859,0.769042969,-0.659179688, 
2,1210798781,0.977460086,0.079877682,-0.19541496,-0.002299299,9.289135933,3.604656458,13.45662022,-31.35204697,281.0923462,48.98197937,0.502441406,0.763671875,-0.643310547, 
3,1210807114,0.981443584,0.076905385,-0.175645456,0.001905939,9.200932503,5.258210182,13.02783966,-33.88883591,280.1178894,42.80029678,0.590820313,0.756103516,-0.600097656, 
4,1210815447,0.985007346,0.073775604,-0.155849531,0.005420264,9.430528641,5.963692188,12.14929008,-37.37871933,279.7344666,33.76866531,0.650146484,0.753662109,-0.557617188, 
5,1210823780,0.988122463,0.070815653,-0.136130869,0.008295657,9.217952728,6.123283863,11.87550735,-35.88637924,276.0999756,24.94823074,0.72265625,0.743408203,-0.497070313, 
6,1210832113,0.990745425,0.068160363,-0.116920069,0.010435998,9.53027153,6.77707386,11.22832966,-32.81290436,268.490387,14.85369492,0.766113281,0.743652344,-0.445556641, 
7,1210840446,0.992953777,0.065619744,-0.097960882,0.011894632,9.73921299,7.364742279,10.4848299,-31.93208694,262.8252869,5.752889156,0.815673828,0.729736328,-0.369873047, 
8,1210848779,0.994751036,0.063072734,-0.07958781,0.012608826,9.722740173,7.289794445,10.0578289,-32.80846405,254.5101929,-3.884983063,0.835205078,0.732177734,-0.304931641, 
9,1210857112,0.996155441,0.060606278,-0.061957281,0.012794727,9.718636513,6.828511715,10.2783165,-32.06528473,242.598999,-10.41035461,0.858398438,0.714355469,-0.228759766, 
10,1210865445,0.997176111,0.058546774,-0.045338813,0.01255787,9.898503304,6.623777866,10.8329916,-26.71634102,228.8330078,-15.71499634,0.860351563,0.715087891,-0.174316406, 
11,1210873778,0.997871697,0.056901094,-0.029547524,0.011940038,10.37707615,6.743211269,11.07092476,-21.20432854,216.1345825,-20.39785576,0.862548828,0.697265625,-0.110839844, 
12,1210882111,0.998292565,0.055439509,-0.014857757,0.010907473,10.17947674,6.796052456,10.48953724,-18.7674427,201.3223877,-25.33540154,0.84765625,0.697509766,-0.064453125, 
13,1210890444,0.998495758,0.054036368,-0.001588244,0.009230137,10.43931389,7.120689392,10.10104752,-18.23731995,180.5920868,-33.0165596,0.841796875,0.679199219,-0.01171875, 
14,1210898777,0.99853605,0.052676708,0.010387747,0.00667364,11.812047,7.923558235,9.011601448,-17.60964394,162.8546753,-44.17281342,0.818359375,0.68359375,0.021240234, 
15,1210907110,0.998465717,0.051003478,0.021352621,0.003171552,12.67612362,7.708763123,6.315088749,-21.93293571,147.7358093,-56.41241837,0.805908203,0.669677734,0.064208984, 
16,1210915443,0.998344421,0.048766043,0.030500302,-0.001110023,13.52622604,6.547006607,4.09287405,-29.35351372,122.8700104,-66.05198669,0.78515625,0.6796875,0.084716797, 
17,1210923776,0.998199761,0.045921952,0.038134713,-0.005955839,15.50522423,5.244499207,3.404424667,-37.60294342,101.234581,-73.01231384,0.770996094,0.670898438,0.122558594, 
18,1210932109,0.998044372,0.042534057,0.044484753,-0.010990627,16.50862312,3.860010147,1.920527697,-44.66029739,83.92741394,-75.1076355,0.753417969,0.684570313,0.1328125, 
19,1210940442,0.997907281,0.03893983,0.04916276,-0.015778679,17.20952225,2.637679577,-0.681250632,-47.64009094,60.73064041,-70.86261749,0.724609375,0.667480469,0.176025391, 
20,1210948775,0.997812986,0.035252091,0.052177053,-0.020131581,18.34718323,1.802477241,-1.863946319,-48.64118195,38.43359756,-64.05578613,0.702392578,0.678955078,0.186035156, 
21,1210957108,0.997747838,0.032094367,0.053890437,-0.023796903,19.16983795,0.970666945,-1.562213778,-41.77984619,20.84292221,-53.61736679,0.684570313,0.659423828,0.2109375, 
22,1210965441,0.997722507,0.029989291,0.054225303,-0.02667271,18.71000481,0.151734218,-0.784001768,-27.22343254,2.792303562,-41.36869049,0.673339844,0.670898438,0.210693359, 
23,1210973774,0.997755229,0.029139893,0.053073563,-0.028637113,17.97702217,-0.450853884,-0.507902086,-10.43138218,-16.84291458,-27.31530571,0.670898438,0.66015625,0.218994141, 
24,1210982107,0.997843146,0.028938955,0.050877851,-0.029743431,16.80119133,-0.776749611,0.306229711,-1.494156599,-30.57699776,-14.60622501,0.676269531,0.678222656,0.204345703, 
25,1210990440,0.99797827,0.029207094,0.047842909,-0.029973481,15.84499645,-1.229935169,1.833423376,4.376749516,-41.45259857,-1.927678704,0.689453125,0.671386719,0.202880859, 
26,1210998773,0.998157322,0.029922059,0.044069521,-0.029078897,14.94033718,-2.076314449,3.08629179,10.33374214,-51.11130524,14.1419487,0.701416016,0.693115234,0.182617188, 
27,1211007106,0.998363376,0.031358358,0.039601222,-0.026830338,14.69638634,-2.803147316,3.521236658,19.41381836,-59.53719711,33.43465042,0.711669922,0.679443359,0.178222656, 
28,1211015439,0.998552024,0.033658441,0.034798868,-0.023475451,14.13924408,-2.498438358,3.279116631,31.06831169,-63.60341263,49.25712204,0.719726563,0.692626953,0.160644531, 
29,1211023772,0.998676658,0.03644662,0.030671366,-0.019420341,8.448589325,-2.116051435,0.761362076,37.01185608,-53.39920044,58.74414063,0.736816406,0.681152344,0.152099609, 
30,1211032105,0.998577893,0.04054077,0.03028121,-0.016821297,-7.545770168,-1.430497766,-1.39489007,54.91002655,-2.784687996,37.39476395,0.754638672,0.697021484,0.128417969, 
31,1211040438,0.998571157,0.045676041,0.023419602,-0.014897433,-20.37392235,9.527651787,29.30270004,70.72892761,-91.29511261,32.14543533,0.774169922,0.688232422,0.116455078, 
32,1211048771,0.998339057,0.053619184,0.016401168,-0.013271557,-7.061540604,10.27212906,29.87163162,109.762619,-93.5196228,29.05087471,0.787109375,0.702392578,0.081542969, 
33,1211057104,0.998075962,0.060087174,0.011571156,-0.01006485,2.137979984,-0.64243263,9.527176857,88.54969788,-62.16319275,48.76266479,0.8046875,0.69140625,0.064697266, 
34,1211065437,0.997848868,0.065046109,0.005086327,-0.006484286,12.91543484,-4.5978508,4.100914955,68.2052536,-85.18849182,55.0651741,0.817382813,0.701660156,0.032226563, 
35,1211073770,0.997608721,0.069039635,-0.002612774,-0.002118803,12.36525631,-2.191246986,8.459989548,54.77618027,-100.841423,66.81137085,0.843261719,0.694335938,0.00390625, 
36,1211082103,0.997289836,0.072621785,-0.011184368,0.003863566,5.116254807,0.997621,11.74825668,49.53707886,-111.6832886,89.87709045,0.869384766,0.704833984,-0.044433594, 
37,1211090436,0.996743798,0.077398971,-0.019968972,0.010647947,-1.835687518,4.570719242,15.54252815,66.06987,-113.3941269,100.8620911,0.907226563,0.698730469,-0.077148438, 
38,1211098769,0.995931983,0.083763175,-0.028518561,0.01705973,-3.151074648,10.81657505,14.92063236,88.23490143,-111.3835602,95.16212463,0.928466797,0.700927734,-0.127929688, 
39,1211107102,0.99507153,0.089214094,-0.037336059,0.021923425,0.443301558,11.60688782,8.621500969,74.9228363,-116.1171341,74.57891083,0.942871094,0.683837891,-0.155761719, 
40,1211115435,0.994359016,0.09206605,-0.046177629,0.025351621,1.870762229,9.196322441,11.89430046,38.62035751,-117.8726578,56.31444931,0.942626953,0.68359375,-0.189941406, 
41,1211123768,0.993583977,0.094358474,-0.055614661,0.028203182,0.608118534,4.547593594,15.12605762,30.21266937,-126.0823669,49.51083755,0.950683594,0.673339844,-0.217041016, 
42,1211132101,0.992521286,0.097955018,-0.065688394,0.031505488,0.131892323,0.871590495,14.62741089,48.76572418,-135.4288025,55.65888977,0.944580078,0.676269531,-0.265625, 
43,1211140434,0.991198719,0.102978744,-0.075689703,0.034536183,2.397469997,0.552868128,11.59779549,68.08542633,-135.1523895,50.64125824,0.954101563,0.661865234,-0.316894531, 
44,1211148767,0.989728093,0.10850767,-0.085043721,0.03785865,2.901303768,1.59621954,11.28670311,76.08901215,-126.819046,53.2826767,0.944580078,0.657470703,-0.37109375, 
45,1211157100,0.988084555,0.114727788,-0.094188064,0.040696241,1.794152617,3.302354813,10.06449986,85.02423096,-124.747261,45.61097717,0.94921875,0.638427734,-0.420654297, 
46,1211165433,0.98640883,0.119818598,-0.103935063,0.042892188,1.940004349,5.589744091,10.93722343,68.83215332,-133.8605347,39.36582947,0.932128906,0.635009766,-0.476318359, 
47,1211173766,0.98485291,0.12283852,-0.1137655,0.045100052,3.672070503,4.893165112,11.11083889,40.2454834,-133.0739441,42.51192856,0.923583984,0.620361328,-0.506835938, 
48,1211182099,0.983648837,0.124782346,-0.120910868,0.047392875,6.267021179,2.130195141,12.78021526,27.14228249,-95.85198975,40.63246155,0.899902344,0.615722656,-0.549560547, 
49,1211190432,0.98253876,0.128342614,-0.125596538,0.048706859,3.38210988,1.470852375,10.47391605,48.53753281,-64.64764404,20.39216614,0.895751953,0.606445313,-0.58203125, 
50,1211198765,0.981682718,0.131122306,-0.128919467,0.049868979,3.891710758,5.458996773,10.66604233,38.47679138,-46.05083084,17.14436913,0.875244141,0.601318359,-0.617919922, 
51,1211207098,0.981282592,0.131525934,-0.130956262,0.051350743,3.998824835,5.632691383,9.707971573,6.755928993,-25.15256882,22.99724388,0.870605469,0.594970703,-0.638427734, 
52,1211215431,0.981119096,0.130901396,-0.132318527,0.052566253,3.76106286,3.674695253,9.975150108,-7.277393341,-15.90176296,19.91015053,0.854248047,0.600097656,-0.663330078, 
53,1211223764,0.981126428,0.129611775,-0.133111089,0.053613231,3.620931149,3.801686764,10.19801998,-16.74285698,-7.195146084,17.67072105,0.848876953,0.596191406,-0.666748047, 
54,1211232097,0.981176078,0.128055841,-0.133809894,0.054693434,2.663228512,2.728935003,9.981813431,-19.99238586,-6.128772736,18.43651199,0.826904297,0.601806641,-0.683105469, 
55,1211240430,0.981271803,0.126213714,-0.134557828,0.055417143,3.774632454,3.686807394,10.10160542,-24.92259216,-6.583016872,14.1800127,0.821533203,0.601318359,-0.686035156, 
56,1211248763,0.981417656,0.123788081,-0.135379314,0.05629766,2.311625481,2.942448854,9.689490318,-32.35596848,-7.302550793,17.48981857,0.799316406,0.609130859,-0.698242188, 
57,1211257096,0.981571078,0.12115334,-0.136421546,0.056836158,3.370009422,3.263125181,9.219571114,-36.29498291,-10.15216446,13.60872078,0.79296875,0.611572266,-0.701904297, 
58,1211265429,0.981819808,0.117651649,-0.137367561,0.057612177,2.655156374,2.603610992,9.419811249,-47.33821106,-8.137738228,18.23085785,0.764892578,0.623046875,-0.706787109, 
59,1211273762,0.982050419,0.114133924,-0.138502315,0.058040086,2.789747953,2.254923344,8.891571045,-48.63135147,-10.73405457,13.86889935,0.752197266,0.626708984,-0.692138672, 
60,1211282095,0.982268572,0.11059688,-0.139567003,0.058642663,2.477854013,1.356765389,8.873699188,-48.18535614,-10.05863094,16.17654228,0.731445313,0.641601563,-0.696777344, 
61,1211290428,0.982411206,0.107806563,-0.140669286,0.058814876,2.491613865,1.167130232,9.094011307,-39.13663864,-11.43375015,9.048563004,0.724121094,0.648193359,-0.684814453, 
62,1211298761,0.982559681,0.105175786,-0.141574517,0.05892691,3.842338562,1.801254392,9.268468857,-36.65022659,-9.512063026,7.630195618,0.703369141,0.658203125,-0.691162109, 
63,1211307094,0.982657969,0.103087157,-0.142383143,0.059027791,2.027609825,0.599509239,9.719568253,-29.48487473,-8.232318878,6.327041149,0.695800781,0.664794922,-0.673828125, 
64,1211315427,0.982669234,0.101852797,-0.143371299,0.058589675,3.198539972,2.061746359,9.666240692,-18.72990417,-12.8137579,-2.307561636,0.676269531,0.675292969,-0.684326172, 
65,1211323760,0.982749462,0.099924318,-0.144143552,0.058671951,4.183212757,1.982613087,9.341720581,-27.28855515,-7.947821617,5.739962101,0.674560547,0.680419922,-0.663085938, 
66,1211332093,0.982775331,0.098885775,-0.144858956,0.058233269,2.150468111,0.643648922,9.132525444,-15.89133167,-9.246151924,-3.103062868,0.658935547,0.694580078,-0.67578125, 
67,1211340426,0.982781947,0.097901806,-0.145601496,0.057934709,3.503320932,2.535274506,8.985221863,-15.15041351,-8.974382401,-1.252664328,0.655761719,0.699462891,-0.666259766, 
68,1211348759,0.98282057,0.096676439,-0.146180958,0.057878692,2.625677586,1.357677937,8.54801178,-17.56038475,-6.717285156,2.250301123,0.645019531,0.709228516,-0.674316406, 
69,1211357092,0.982819259,0.095927462,-0.146790385,0.057601601,2.751932383,1.729949355,8.590287209,-11.81449223,-7.347829819,-1.61093092,0.641845703,0.713134766,-0.6640625, 
70,1211365425,0.982844949,0.095075585,-0.147186622,0.05756665,3.687227011,2.006645441,8.919750214,-12.30561733,-4.53927803,1.554566383,0.625244141,0.723144531,-0.675292969, 
71,1211373758,0.982882142,0.09438809,-0.147374392,0.05758211,2.698319435,1.266893625,9.226819992,-10.10771084,-1.239037514,1.638376355,0.626708984,0.727050781,-0.666748047, 
72,1211382091,0.982900679,0.093932614,-0.14759621,0.057442691,2.457475424,2.04292798,9.371684074,-7.011897564,-2.644977093,-0.882487297,0.611328125,0.732910156,-0.678222656, 
73,1211390424,0.982932329,0.093295082,-0.147767335,0.057499848,2.652892113,1.503024578,9.768844604,-9.324685097,-1.012402892,2.085959911,0.610351563,0.735839844,-0.665527344, 
74,1211398757,0.982960224,0.092989109,-0.147860557,0.057277497,3.431259155,1.522539735,9.351711273,-5.071157455,-1.110761285,-2.481122971,0.593994141,0.740966797,-0.683837891, 
75,1211407090,0.983025074,0.092396155,-0.147808388,0.057257459,3.067246914,1.7627455,9.120972633,-8.745315552,1.930045605,0.639344156,0.593261719,0.743652344,-0.677490234, 
76,1211415423,0.98305738,0.092217468,-0.147846445,0.056892995,1.962401152,1.7207793,9.006383896,-3.601514816,-0.634925723,-4.73566246,0.575927734,0.748535156,-0.693359375, 
77,1211423756,0.983131051,0.091574922,-0.147773638,0.0568459,3.9201653,2.566879034,8.776947975,-9.463894844,2.227529049,0.344831616,0.578613281,0.748535156,-0.689208984, 
78,1211432089,0.983218849,0.090999596,-0.147606716,0.056686182,2.220762014,1.074887037,8.794537544,-8.455924988,2.820908546,-1.464519501,0.564208984,0.755615234,-0.703857422, 
79,1211440422,0.983258843,0.090714701,-0.147619709,0.056412958,3.222789049,2.26089263,8.804066658,-5.117621899,0.433405668,-3.304646254,0.564697266,0.756103516,-0.698486328, 
80,1211448755,0.983375967,0.089911722,-0.147314698,0.056456618,4.149161816,1.620379925,8.965913773,-11.0521574,5.175368309,1.553234339,0.547363281,0.759277344,-0.709960938, 
81,1211457088,0.983477116,0.089693502,-0.146912932,0.05608362,2.114823103,1.156119347,9.262465477,-4.169255257,5.990619659,-5.351736546,0.551025391,0.757324219,-0.713378906, 
82,1211465421,0.983596444,0.089433394,-0.146339402,0.055906314,3.565608501,2.208706856,9.238985062,-3.954838753,8.116089821,-2.866003036,0.533447266,0.761962891,-0.724609375, 
83,1211473754,0.983755708,0.089205235,-0.145489678,0.055685677,2.632143259,0.733032584,9.310423851,-3.720672607,12.36134052,-3.868005753,0.533447266,0.760742188,-0.726318359, 
84,1211482087,0.983893931,0.089447603,-0.14461869,0.055120789,2.592747688,1.941450953,8.987529755,2.272610903,11.31630802,-9.496762276,0.516845703,0.759277344,-0.742431641, 
85,1211490420,0.983998001,0.089433938,-0.144021064,0.054851718,2.399384737,1.611277699,9.007216454,-1.04160285,8.613438606,-4.604235172,0.516357422,0.757324219,-0.753173828, 
86,1211498753,0.984049082,0.089479886,-0.143804416,0.054427475,2.462451696,1.310793638,9.146267891,-0.491306603,2.613612413,-6.330967903,0.494140625,0.753662109,-0.771728516, 
87,1211507086,0.984045386,0.0895724,-0.143920675,0.054032929,2.890856028,1.425658226,8.85912323,-0.260189414,-1.501250267,-5.552474499,0.489501953,0.750732422,-0.779052734, 
88,1211515419,0.984010756,0.089700736,-0.144259751,0.053545542,2.789928436,1.534824371,8.989076614,0.189148307,-5.216466904,-6.601351261,0.468994141,0.749267578,-0.802734375, 
89,1211523752,0.98392117,0.089727804,-0.144986778,0.053179309,2.542808056,1.690767527,9.267199516,-1.4293257,-9.855410576,-4.220125198,0.455566406,0.743164063,-0.814208984, 
90,1211532085,0.983826518,0.089652449,-0.145801991,0.05282633,3.4696033,1.895645976,9.118907928,-2.577022791,-11.46344662,-3.744417429,0.426757813,0.736328125,-0.839111328, 
91,1211540418,0.983758211,0.089631803,-0.146412924,0.052442156,2.636625528,1.485907555,9.462641716,-2.054441452,-8.234363556,-4.529673576,0.406005859,0.730957031,-0.849121094, 
92,1211548751,0.983689964,0.089645386,-0.146971881,0.052134506,3.761378527,2.031571388,9.393232346,-1.128691316,-7.951734543,-3.645955801,0.364013672,0.723388672,-0.87109375, 
93,1211557084,0.983669102,0.08944577,-0.147359297,0.051778149,2.732660532,1.886549354,9.443129539,-4.316921234,-4.954511166,-4.097663403,0.337646484,0.711914063,-0.877929688, 
94,1211565417,0.983637989,0.089279048,-0.147775382,0.051471788,3.2132864,1.969362736,9.393078804,-3.507972717,-5.814124584,-3.466451883,0.291015625,0.702392578,-0.888916016, 
95,1211573750,0.983632088,0.089023389,-0.148076132,0.051162139,3.356601477,1.34761095,8.999328613,-4.939320564,-3.654818058,-3.468525887,0.2578125,0.692138672,-0.887451172, 
96,1211582083,0.983623505,0.088862941,-0.148328736,0.050874069,2.776811123,1.498246074,8.890049934,-3.298472881,-3.538171053,-3.450134754,0.211425781,0.681640625,-0.887207031, 
97,1211590416,0.983604252,0.088951051,-0.148533359,0.050489664,3.066473961,2.533133984,8.431708336,-0.360264242,-2.715698242,-5.290415287,0.177246094,0.669677734,-0.873046875, 
98,1211598749,0.983753145,0.087869182,-0.148623839,0.04919979,1.412016034,3.933236837,10.3405962,-17.88678932,-1.610623956,-15.42492676,0.130859375,0.663574219,-0.853027344, 
99,1211607082,0.983718216,0.088203885,-0.1490089,0.048125304,3.123114824,-4.06365633,8.753056526,1.457795978,-6.185582638,-14.90958595,0.101318359,0.651855469,-0.827148438, 
100,1211615415,0.983744621,0.088365152,-0.149077222,0.047068849,3.587320328,5.334552288,9.576239586,-0.434289485,-2.121986151,-14.75124168,0.067871094,0.637451172,-0.80859375, 
101,1211623748,0.983779132,0.088346131,-0.149184346,0.046031374,3.507519484,-0.395532608,9.158338547,-3.136898994,-2.017505407,-14.0730505,0.055419922,0.630859375,-0.782470703, 
102,1211632081,0.983803868,0.088630222,-0.149132326,0.045115046,3.532834768,2.156529903,9.11727047,1.592244983,-0.403885245,-13.25375462,0.036865234,0.618164063,-0.759765625, 
103,1211640414,0.983810067,0.088890441,-0.149136677,0.044449866,3.12571454,1.555547118,9.037137032,1.500238538,-0.406728446,-9.706156731,0.031982422,0.607177734,-0.734863281, 
104,1211648747,0.983831644,0.089095242,-0.148998797,0.044022772,3.556137323,2.160635948,9.022753716,1.57872057,1.398857474,-6.575481892,0.020263672,0.598632813,-0.719482422, 
105,1211657080,0.983846009,0.089281991,-0.148845389,0.043845158,3.04458499,1.387914062,8.776637077,1.588018537,2.384185791,-3.158593893,0.022705078,0.586181641,-0.701660156, 
106,1211665413,0.983845353,0.089521758,-0.148677498,0.043940738,3.813674212,2.10608077,8.77302742,3.168596029,2.378371239,0.40118292,0.016357422,0.573486328,-0.691650391, 
107,1211673746,0.983879149,0.08959543,-0.148340374,0.04416956,2.945804119,1.742200375,9.282003403,0.977759302,5.48117733,2.338105679,0.021972656,0.560302734,-0.674560547, 
108,1211682079,0.983878076,0.089759871,-0.148104072,0.04465032,2.258009911,1.566463113,9.403369904,2.977078915,3.823782921,5.682889462,0.020751953,0.550537109,-0.670410156, 
109,1211690412,0.98383981,0.090099283,-0.147959977,0.045280792,3.935758591,1.894240737,8.812662125,5.364606857,3.056892633,7.510567665,0.02734375,0.538085938,-0.6640625, 
110,1211698745,0.983867526,0.090216532,-0.147492215,0.04596471,2.295116901,1.291777492,9.632294655,2.859868288,7.295255184,8.22313118,0.023925781,0.524169922,-0.66796875, 
111,1211707078,0.983808041,0.09058065,-0.147372186,0.046897382,2.960664749,1.56434238,9.32491684,6.320556164,3.044213533,11.59652615,0.026855469,0.508300781,-0.665527344, 
112,1211715411,0.983796418,0.090809032,-0.147016093,0.047808655,3.155350208,1.870565176,9.113267899,4.807369232,5.918950558,11.23493004,0.016845703,0.493408203,-0.668701172, 
113,1211723744,0.983768404,0.091098599,-0.146693051,0.048817847,2.536876678,1.258204103,9.308674812,5.564578533,5.993284225,12.50813961,0.021972656,0.478027344,-0.666503906, 
114,1211732077,0.983685911,0.091516666,-0.146596685,0.049977183,3.263907433,1.433071256,8.573730469,7.78897047,2.445762634,14.58089352,0.006591797,0.463623047,-0.679199219, 
115,1211740410,0.983610928,0.091853596,-0.146460027,0.051216315,3.374336958,0.93525815,7.859476089,6.606283665,3.631676435,15.78412151,0.004394531,0.445068359,-0.678466797, 
116,1211748743,0.983484209,0.092378624,-0.146460772,0.052683793,1.439496994,0.681258976,9.691531181,9.842466354,1.355774879,18.68721771,-0.016601563,0.426025391,-0.678710938, 
117,1211757076,0.983276904,0.093121357,-0.146795943,0.054287881,2.861340523,2.128108025,10.39114571,12.6665411,-2.838801622,20.60239792,-0.024169922,0.407958984,-0.682373047, 
118,1211765409,0.983089566,0.093669459,-0.147058144,0.055999346,3.260816097,1.720656991,9.401939392,10.53697109,-2.004263639,22.31601715,-0.049316406,0.390869141,-0.676757813, 
119,1211773742,0.982904434,0.09423276,-0.147269875,0.057722028,2.926356077,1.036849618,8.745840073,10.54877949,-0.849419713,22.37687683,-0.062011719,0.371826172,-0.670654297, 
120,1211782075,0.982718349,0.094730809,-0.147495538,0.059473552,1.58355689,1.395625234,10.38973522,9.966489792,-1.416800737,22.91103554,-0.091552734,0.35546875,-0.658447266, 
121,1211790408,0.982444584,0.095227562,-0.148234293,0.061335661,4.555800915,2.334718227,9.900643349,9.624593735,-7.915213585,25.15866661,-0.106689453,0.337890625,-0.640625, 
122,1211798741,0.982298672,0.095124453,-0.14854452,0.063058935,2.853988647,1.306632757,9.115200996,1.675082088,-2.008694887,23.82597542,-0.123535156,0.323730469,-0.633544922, 
123,1211807074,0.982046783,0.095079564,-0.149533644,0.064691424,2.813737154,1.642836452,9.21459198,1.585714221,-11.10280514,23.46850777,-0.129882813,0.311523438,-0.600585938, 
124,1211815407,0.981826663,0.09459836,-0.15073733,0.065932967,5.369446754,1.766625762,9.478853226,-5.10148716,-14.51987267,19.33029366,-0.145996094,0.299072266,-0.588378906, 
125,1211823740,0.981742322,0.093591638,-0.15166384,0.066497236,2.981787205,1.09703505,9.893726349,-13.76437664,-10.4422102,10.79528904,-0.145507813,0.287841797,-0.553222656, 
126,1211832073,0.981553972,0.09249828,-0.153583765,0.0664009,0.961870074,1.325212955,9.781023026,-16.84872246,-25.29942894,3.428045034,-0.158691406,0.276367188,-0.531005859, 
127,1211840406,0.981182158,0.091415048,-0.157000959,0.065398008,1.328749299,1.537329912,9.778903008,-19.98939323,-46.59314346,-6.74234724,-0.155029297,0.264160156,-0.500244141, 
128,1211848739,0.980706453,0.090464853,-0.161460519,0.062950253,-0.06299115,1.924557805,10.54607964,-21.89201927,-63.28488541,-25.1356678,-0.166992188,0.253662109,-0.481201172, 
129,1211857072,0.979774177,0.09012118,-0.168515041,0.059368826,-0.985283136,1.747585893,10.61010265,-18.13985634,-100.7879333,-38.13438034,-0.167480469,0.241943359,-0.451416016, 
130,1211865405,0.97795409,0.091572389,-0.17946206,0.054907121,0.826630831,-0.683374822,9.709514618,2.157859325,-158.2926178,-48.62052917,-0.186279297,0.224365234,-0.435791016, 
131,1211873738,0.975111425,0.094040342,-0.194743931,0.048891865,1.093705773,-2.245524883,13.19064999,9.782164574,-221.440918,-65.75273132,-0.1953125,0.211669922,-0.407958984, 
132,1211882071,0.967329741,0.102247514,-0.227371231,0.04607033,-17.88169479,1.000874758,20.43323135,90.2666626,-467.4705505,-12.58566189,-0.227783203,0.194091797,-0.384521484, 
133,1211890404,0.954359055,0.114451557,-0.271877855,0.04672391,-4.725312233,6.806399822,14.49402523,153.910675,-639.145874,41.19874573,-0.265869141,0.172607422,-0.347412109, 
134,1211898737,0.937309504,0.122289605,-0.32264021,0.048994131,-1.898470163,9.432388306,13.72754192,105.2491531,-731.6278687,91.18857574,-0.331054688,0.161865234,-0.305664063, 
135,1211907070,0.915454507,0.125816494,-0.378955781,0.050070379,-4.142294407,6.623326302,16.12018013,48.52655411,-823.562561,107.6380768,-0.376220703,0.156005859,-0.244140625, 
136,1211915403,0.887839019,0.122464456,-0.440897644,0.048529096,-6.674740314,7.848332405,20.62460709,-45.50958252,-924.6222534,124.1499557,-0.445800781,0.16796875,-0.169677734, 
137,1211923736,0.851101756,0.11126598,-0.511125088,0.044702031,-7.001555443,7.684725285,22.91025162,-145.6014099,-1080.036377,164.1503143,-0.493164063,0.189208984,-0.066894531, 
138,1211932069,0.804915845,0.090778425,-0.585499763,0.032577578,-4.354827404,11.35772419,17.05296707,-300.8426514,-1202.579102,144.2915192,-0.550537109,0.223632813,0.069335938, 
139,1211940402,0.788061202,0.086365119,-0.609469473,0.006981587,45.3131218,5.45178318,48.39427567,-245.1199951,-431.0713196,-210.2518921,-0.579101563,0.234375,0.183837891, 
140,1211948735,0.792247355,0.081423536,-0.604726434,-0.004621453,21.87329674,-12.18576527,49.40634918,-155.6938629,73.31838989,-90.5592804,-0.615966797,0.224853516,0.189453125, 
141,1211957068,0.796563804,0.08586634,-0.598395884,-0.006041756,-7.688501835,-23.34712601,22.70718193,30.996315,103.3482666,-59.07925034,-0.627929688,0.234863281,0.169677734, 
142,1211965401,0.795271695,0.098908432,-0.598129511,-0.001454064,-5.289540768,-11.49550819,8.254191399,181.7490234,-1.077907085,-57.68684387,-0.658203125,0.24609375,0.138671875, 
143,1211973734,0.793449819,0.108773798,-0.598834097,0.002182647,-0.099448755,3.941718578,10.57820415,139.9683533,-18.05318069,-40.45586777,-0.672607422,0.257080078,0.112548828, 
144,1211982067,0.794706881,0.110885188,-0.596776962,0.001971829,2.309750319,5.870230675,11.90071392,19.10928917,32.55490875,-22.99739456,-0.700439453,0.273925781,0.082275391, 
145,1211990400,0.798702478,0.108337969,-0.591893911,-0.000297148,0.755140603,-2.541292191,10.25165749,-52.72607422,82.1725769,-11.47361088,-0.706298828,0.293457031,0.053955078, 
146,1211998733,0.802605391,0.106987089,-0.586837292,-0.001259486,-0.033959772,-8.108304977,8.550127029,-28.87931442,86.00431824,-7.286919117,-0.7265625,0.321289063,0.019042969, 
147,1212007066,0.806559384,0.108056739,-0.581194282,-0.000370581,1.803026915,-5.40559721,9.506989479,12.75100994,94.83462524,-7.079550266,-0.719970703,0.345947266,-0.013183594, 
148,1212015399,0.812093318,0.108906217,-0.573274553,0.001260696,2.597814083,-0.403357953,11.33707237,13.82287979,134.6371918,-0.631810844,-0.730712891,0.372558594,-0.063232422, 
149,1212023732,0.819136858,0.108630955,-0.563213229,0.00251623,1.1798985,1.662425756,12.59909058,-3.822406054,169.0264893,0.928193569,-0.71484375,0.404541016,-0.105224609, 
150,1212032065,0.826705277,0.107859477,-0.552190304,0.003456918,0.889134824,1.518552184,12.73225975,-12.70340347,184.3578949,-0.352667391,-0.717285156,0.434326172,-0.15625, 
151,1212040398,0.834662378,0.106906787,-0.540272653,0.004055057,1.470255613,1.604440808,12.08026314,-17.79870987,196.0020294,-4.096496582,-0.690185547,0.467285156,-0.200195313, 
152,1212048731,0.84296298,0.105651855,-0.527480245,0.004127727,2.40083766,2.684397221,11.00355053,-25.72891617,208.820694,-9.306501389,-0.693603516,0.500732422,-0.247314453, 
153,1212057064,0.851684153,0.103934109,-0.513634622,0.00357389,2.952274561,3.355456114,9.924459457,-36.08269501,222.1227875,-14.63788319,-0.669677734,0.532958984,-0.298095703, 
154,1212065397,0.860484838,0.101749279,-0.499208003,0.002390171,3.263362885,3.797564268,9.542870522,-46.19565201,229.688446,-19.67968178,-0.667480469,0.568115234,-0.356689453, 
155,1212073730,0.869658947,0.099343047,-0.483554482,0.000791487,4.59414959,4.119655132,9.153940201,-52.03532028,245.0536194,-24.65740585,-0.635009766,0.602294922,-0.422119141, 
156,1212082063,0.879172206,0.096865296,-0.466554403,-0.001278911,4.851184368,4.168750763,8.346538544,-56.58786011,263.9178162,-31.80908585,-0.612792969,0.640380859,-0.500732422, 
157,1212090396,0.88864547,0.094702959,-0.448695421,-0.003797793,4.276941299,4.487815857,7.0258255,-55.52140808,272.2557678,-40.25559235,-0.544189453,0.677001953,-0.572998047, 
158,1212098729,0.897465229,0.09268932,-0.431183666,-0.006851648,3.896893501,5.567092896,6.432108402,-56.22826004,264.487793,-47.43774033,-0.479003906,0.717041016,-0.642089844, 
159,1212107062,0.905715287,0.090473779,-0.413982928,-0.010659287,4.471120834,6.218699455,6.746927261,-62.35282516,255.0617828,-55.04859161,-0.377929688,0.753173828,-0.682861328, 
160,1212115395,0.913449943,0.088030457,-0.397015929,-0.015467027,5.26682663,5.675419807,7.663262367,-70.29010773,249.1678467,-66.14517975,-0.303955078,0.788818359,-0.709716797, 
161,1212123728,0.92079854,0.085337259,-0.380018771,-0.020845149,6.755330086,4.081434727,9.120318413,-75.99913788,245.4490204,-71.88757324,-0.214355469,0.820068359,-0.711914063, 
162,1212132061,0.927777469,0.08265508,-0.362913996,-0.02630258,7.919130802,1.481743932,9.732718468,-75.95348358,246.0362091,-73.35933685,-0.153808594,0.847900391,-0.713623047, 
163,1212140394,0.934200943,0.080041371,-0.346247524,-0.031238485,9.465683937,-0.94233942,10.53506279,-71.60733032,237.0283356,-66.57158661,-0.075195313,0.871582031,-0.704101563, 
164,1212148727,0.940340877,0.077319115,-0.329471231,-0.03508164,11.73088074,-3.302919626,10.94336319,-67.61344147,239.505722,-52.43593979,-0.022705078,0.888916016,-0.706542969, 
165,1212157060,0.946439862,0.074363977,-0.3119663,-0.037413932,13.15002155,-5.524842262,11.46506786,-63.99111938,248.9759216,-32.49588394,0.057861328,0.895019531,-0.694580078, 
166,1212165393,0.952453792,0.071384445,-0.29377985,-0.037824221,14.35139084,-6.838639259,12.17770195,-56.42300797,260.6948547,-8.256574631,0.113769531,0.896728516,-0.695800781, 
167,1212173726,0.958474278,0.068537168,-0.274431407,-0.036311187,14.78404903,-6.714765072,12.4671011,-47.38353348,276.6748352,15.36475658,0.203857422,0.888183594,-0.676269531, 
168,1212182059,0.964325964,0.065661371,-0.254315168,-0.033001814,14.24938202,-5.552749634,11.88803196,-41.35206604,289.065979,38.24204636,0.272460938,0.87890625,-0.677001953, 
169,1212190392,0.969811201,0.062611051,-0.23396638,-0.028406568,13.28055286,-3.537857533,11.42547131,-38.74690247,290.7722473,55.57511902,0.370117188,0.861328125,-0.649902344, 
170,1212198725,0.974805951,0.059685618,-0.213715374,-0.02276185,13.23931313,-1.495319128,12.01277351,-33.4417038,290.0207214,69.01834869,0.453613281,0.851318359,-0.637695313, 
171,1212207058,0.979394734,0.056861993,-0.193070248,-0.016673157,12.72144985,1.001592636,12.52628803,-30.33533287,293.3893433,74.23770142,0.548095703,0.829101563,-0.596435547, 
172,1212215391,0.983467877,0.053914428,-0.172540784,-0.010735183,11.92197514,3.53352356,12.48887444,-32.20129776,291.4343872,72.49089813,0.619873047,0.813720703,-0.547363281, 
173,1212223724,0.98701781,0.050689261,-0.152310073,-0.005433005,11.59928799,5.371329784,12.24698448,-36.81299973,284.5814514,64.70927429,0.700439453,0.790527344,-0.478515625, 
174,1212232057,0.990075588,0.047427185,-0.132292241,-0.001116995,11.640481,6.6571064,11.83228588,-39.24001312,281.0272827,51.49607849,0.748291016,0.778808594,-0.411621094, 
175,1212240390,0.992648244,0.044248853,-0.112643532,0.00210127,11.3873682,7.510429859,12.10197735,-39.60039139,273.4073486,36.63840485,0.799560547,0.75390625,-0.333496094, 
176,1212248723,0.994738519,0.041392487,-0.093619347,0.004342526,11.71282005,7.824089527,12.46564293,-36.61796188,264.5252075,23.18863297,0.818359375,0.741210938,-0.264160156, 
177,1212257056,0.996423841,0.0388286,-0.074831203,0.005780343,12.08885574,8.014535904,12.97177505,-33.31626129,259.3817749,12.01860428,0.843994141,0.714111328,-0.186035156, 
178,1212265389,0.997736037,0.036563143,-0.056082461,0.006501935,12.43957329,8.090167046,13.06264114,-29.88473892,258.9699402,1.908156991,0.838134766,0.711181641,-0.125976563, 
179,1212273722,0.998691857,0.034318604,-0.037360772,0.006501826,11.80994129,8.212712288,12.17747879,-29.92585564,257.130188,-7.922079563,0.842041016,0.6875,-0.055175781, 
180,1212282055,0.999282598,0.032085288,-0.019331954,0.005692896,11.80394077,9.298445702,10.8879118,-30.1291523,247.8696747,-18.7198925,0.825439453,0.685791016,-0.009277344, 
181,1212290388,0.999539077,0.030111661,-0.002261948,0.00336533,11.99993706,11.38777161,8.771670341,-26.90350723,233.1853333,-39.17669678,0.808105469,0.663085938,0.055664063, 
182,1212298721,0.999529302,0.027798543,0.013007411,-0.000859478,12.628088,12.36494827,6.268238544,-31.59008026,208.3826447,-64.51914978,0.781738281,0.667236328,0.090332031, 
183,1212307054,0.99933356,0.024580214,0.026146475,-0.00677287,14.45080853,10.54277611,2.596388817,-43.72288132,177.8557434,-87.06342316,0.764648438,0.65234375,0.14453125, 
184,1212315387,0.999027789,0.020301461,0.036544587,-0.014038606,17.16257477,6.959030628,0.159590319,-57.42877579,140.2886658,-105.1282425,0.727783203,0.662841797,0.169677734, 
185,1212323720,0.998620093,0.015156763,0.045435589,-0.021564376,21.48610115,3.027100325,-2.611015797,-69.05231476,118.8966141,-108.7366638,0.700683594,0.647460938,0.213378906, 
186,1212332053,0.998186409,0.009761589,0.052018937,-0.02870783,24.12296867,-0.086804152,-5.527672768,-71.86267853,87.7258606,-103.1667023,0.665771484,0.658203125,0.233154297, 
187,1212340386,0.997809589,0.004951199,0.056502074,-0.034062218,26.9578228,-2.679412603,-6.459473133,-64.50822449,58.9969635,-77.90624237,0.646728516,0.645507813,0.264160156, 
188,1212348719,0.997570038,0.002273102,0.059135385,-0.036781393,26.87768555,-5.151065826,-6.89004612,-36.22526932,35.01574707,-39.87815094,0.628662109,0.661132813,0.270263672, 
189,1212357052,0.997527421,0.002729679,0.059143718,-0.037879497,24.43336678,-4.841270447,-6.024655819,6.57772398,0.378591239,-14.92831135,0.626464844,0.647216797,0.282958984, 
190,1212365385,0.997651517,0.004758376,0.057120908,-0.037515033,22.05990028,-1.462679505,-3.264475107,28.20731735,-26.64332199,6.595200539,0.626953125,0.665283203,0.267089844, 
191,1212373718,0.997895658,0.006521774,0.054086212,-0.035180725,18.67835236,0.352723092,-0.734627843,23.37898445,-40.50444412,33.52588654,0.636962891,0.647460938,0.267578125, 
192,1212382051,0.9982149,0.008257437,0.049984641,-0.031650342,15.72689056,0.255593836,1.407833099,22.77402878,-55.22790527,50.06483078,0.647949219,0.667724609,0.24609375, 
193,1212390384,0.99853611,0.010501398,0.045333479,-0.027596284,14.12588406,0.752289295,4.350455761,29.48297691,-62.18901825,57.65791702,0.667480469,0.654296875,0.245605469, 
194,1212398717,0.998833776,0.013374858,0.040425505,-0.02278899,11.87079811,1.000478625,5.250589848,37.90617371,-65.65790558,68.42965698,0.6875,0.672851563,0.217529297, 
195,1212407050,0.999095559,0.016673634,0.035117473,-0.017270282,10.17530251,0.858884752,5.951726913,43.34258652,-70.42465973,78.49129486,0.713378906,0.661376953,0.208496094, 
196,1212415383,0.99926728,0.020121956,0.030409897,-0.011684442,6.832636833,1.03286469,8.206183434,45.38427734,-62.52549744,79.33580017,0.739501953,0.681152344,0.177001953, 
197,1212423716,0.999198556,0.024030551,0.031030307,-0.007944004,-8.960506439,-0.133839533,3.313372374,51.55480576,10.90435314,52.6385231,0.76171875,0.666748047,0.170898438, 
198,1212432049,0.999138176,0.028841043,0.02965671,-0.003588499,-47.06724548,3.178629875,16.46865082,64.0369873,-16.74742508,62.15186691,0.773925781,0.68359375,0.154296875, 
199,1212440382,0.999171138,0.037626289,0.015395951,-0.002376016,-14.51422119,19.99148369,43.65758133,120.4050064,-194.3672943,25.67599678,0.789794922,0.666748047,0.133544922, 
200,1212448715,0.99883765,0.046927255,0.011072803,-5.49126E-05,9.771150589,1.901111126,10.47245598,127.246933,-57.69085312,35.89292526,0.789550781,0.677246094,0.096923828, 
201,1212457048,0.998532534,0.053604357,0.004680591,0.006230382,23.61255264,-9.857694626,-6.697683334,90.37117767,-83.2816391,91.2650528,0.807617188,0.662841797,0.081298828, 
202,1212465381,0.998126447,0.060409196,-0.003526402,0.009121377,22.06815147,-5.740406036,2.525433064,92.47792053,-110.9846497,46.02457809,0.827636719,0.676025391,0.036865234, 
203,1212473714,0.997716069,0.064590521,-0.013549609,0.014435215,7.887282848,2.607695103,15.2886219,56.1918869,-133.1434631,80.883255,0.862060547,0.670654297,-0.002441406, 
204,1212482047,0.997233212,0.067309029,-0.022962801,0.021667065,-6.710222721,5.596113682,18.52622414,36.83273315,-123.2239609,106.9802856,0.892822266,0.684814453,-0.052490234, 
205,1212490380,0.996401489,0.073008612,-0.031590085,0.029277604,-4.25139761,8.772545815,17.01387024,78.26436615,-112.5276794,110.5546036,0.931884766,0.673339844,-0.08984375, 
206,1212498713,0.995223463,0.081847586,-0.040092431,0.035003185,-1.818557978,13.93753815,6.965252399,120.988266,-114.689476,83.43048096,0.946777344,0.678710938,-0.136474609, 
207,1212507046,0.994237065,0.087394245,-0.048833698,0.038360171,4.611708641,16.26688766,9.793320656,74.13101196,-118.4252777,52.95084763,0.960693359,0.660644531,-0.161376953, 
208,1212515379,0.993414402,0.090168767,-0.057385392,0.04129836,1.474582553,7.94220829,15.76379681,36.01137161,-115.2709885,48.82595825,0.958984375,0.662353516,-0.193603516, 
209,1212523712,0.992566109,0.093183242,-0.065564901,0.042802535,3.004985809,-1.2900635,14.44065762,38.12393951,-111.6056366,28.5632267,0.965332031,0.650878906,-0.224365234, 
210,1212532045,0.991608799,0.096614152,-0.072811641,0.045580257,2.387681961,-5.469937325,13.73101902,45.92074585,-98.10155487,44.47631454,0.958251953,0.654541016,-0.268310547, 
211,1212540378,0.990133584,0.104030713,-0.080222659,0.048772849,0.631123483,-2.62471652,10.91330624,100.997139,-102.2878876,46.64749146,0.970458984,0.635498047,-0.317382813, 
212,1212548711,0.988408387,0.111872748,-0.088212669,0.052471831,0.03566771,6.017370224,11.15962887,107.5944061,-110.5295792,54.10700226,0.965087891,0.631103516,-0.385986328, 
213,1212557044,0.986684084,0.118130676,-0.097213134,0.055231333,0.90194267,9.298848152,10.79990101,83.97908783,-124.0499115,44.75765228,0.969482422,0.612304688,-0.436767578, 
214,1212565377,0.985051453,0.1222139,-0.106730416,0.057853281,4.351533413,4.839749336,11.74825859,53.95849991,-130.0260468,46.62322998,0.959960938,0.60546875,-0.490966797, 
215,1212573710,0.983437479,0.126429483,-0.114911206,0.060523018,6.496456623,-0.907506883,13.10892391,56.60168457,-111.419342,44.77487564,0.950439453,0.590332031,-0.532714844, 
216,1212582043,0.981781363,0.133770972,-0.120090559,0.061564751,4.051711559,0.345576048,11.15641594,99.12667847,-76.82533264,12.67483044,0.931884766,0.582275391,-0.581298828, 
217,1212590376,0.980511487,0.138864368,-0.123886727,0.062987164,4.656703472,8.236005783,11.72240162,69.62492371,-54.39062881,18.60263634,0.927001953,0.565673828,-0.615478516, 
218,1212598709,0.979982018,0.14001295,-0.125891432,0.064686053,4.128872395,8.584293365,10.0664587,17.28119469,-25.5474472,25.04203796,0.906005859,0.563720703,-0.646484375, 
219,1212607042,0.979831696,0.139151961,-0.127118871,0.06639871,4.354621887,3.426440239,10.0155592,-10.05858994,-12.07356262,26.81972885,0.90234375,0.558837891,-0.660888672, 
220,1212615375,0.979783535,0.138806149,-0.127285555,0.067505226,3.609519243,2.094997644,10.14320087,-3.159311771,0.239249796,15.68082047,0.888427734,0.563964844,-0.671875, 
221,1212623708,0.979773819,0.138622373,-0.127251834,0.068086334,3.541965961,3.691322803,10.40743065,-2.052135706,2.392151833,7.853850365,0.883789063,0.560791016,-0.674560547, 
222,1212632041,0.979879856,0.137554586,-0.127215192,0.068790726,2.793518782,4.002010822,9.924880028,-13.69575596,3.157429218,10.99433708,0.866455078,0.564941406,-0.693359375, 
223,1212640374,0.980059564,0.13583307,-0.127361119,0.069377124,3.025150776,3.368270874,9.64622879,-23.28993607,1.763656259,10.7758503,0.858642578,0.561523438,-0.692138672, 
224,1212648707,0.980270505,0.134076774,-0.127323106,0.069880828,2.98273468,2.747672081,9.159404755,-23.79123306,4.175263882,9.356386185,0.835449219,0.570556641,-0.705566406, 
225,1212657040,0.980466485,0.132544711,-0.127173588,0.070323475,1.959615469,2.151188374,9.333014488,-20.47008324,4.782550812,7.991067886,0.823730469,0.571289063,-0.706542969, 
226,1212665373,0.980697691,0.130877927,-0.126961172,0.070606589,3.51451683,2.902080536,9.160387039,-22.56691742,5.533432484,5.925740242,0.802001953,0.576416016,-0.720947266, 
227,1212673706,0.980896652,0.129308373,-0.126738712,0.071132049,2.43320632,1.460547924,9.020521164,-21.0346241,6.489484787,8.999911308,0.792724609,0.579101563,-0.709716797, 
228,1212682039,0.981037736,0.128468707,-0.126409784,0.071293414,2.690996408,1.884902596,8.948596954,-11.34846592,5.928172112,2.722473621,0.768798828,0.587890625,-0.716308594, 
229,1212690372,0.981188297,0.127428696,-0.126091704,0.071650483,2.621982336,2.217200994,8.993926048,-14.00461197,6.875771523,5.682865143,0.758300781,0.590087891,-0.70703125, 
230,1212698705,0.981322289,0.126735628,-0.125678271,0.071772881,2.825266361,2.038057566,8.90098381,-9.340461731,6.844340801,1.801948905,0.744873047,0.600097656,-0.719238281, 
231,1212707038,0.981450915,0.126072451,-0.125243604,0.071938589,3.234303236,2.459179163,9.176070213,-9.094205856,7.703877926,2.267051935,0.739013672,0.605712891,-0.700927734, 
232,1212715371,0.981568277,0.125533879,-0.124783605,0.072078519,2.016660929,2.06987834,9.596579552,-7.150290966,7.322687626,1.707329869,0.723876953,0.612304688,-0.705566406, 
233,1212723704,0.981654882,0.125076056,-0.124447957,0.072275244,3.343678951,2.662672043,9.319826126,-6.294699192,6.145226955,2.54012537,0.720947266,0.617675781,-0.688964844, 
234,1212732037,0.981743097,0.124622092,-0.124053948,0.072537839,2.6552279,1.65199101,9.31497097,-5.812587738,6.508744717,3.362394094,0.7109375,0.626464844,-0.702880859, 
235,1212740370,0.981789947,0.124458194,-0.123921968,0.072410554,2.128548622,2.695752621,8.954833031,-3.012567043,2.478138924,-1.944760799,0.713867188,0.635009766,-0.689697266, 
236,1212748703,0.981853247,0.123567559,-0.124204233,0.072594263,2.513168812,2.929499626,8.605016708,-12.47449303,-2.36606431,4.222366333,0.697021484,0.639404297,-0.700195313, 
237,1212757036,0.98188287,0.122802854,-0.124686576,0.072665431,1.867101789,1.823334813,8.680990219,-11.36721516,-4.910301208,2.830667734,0.697509766,0.643798828,-0.687988281, 
238,1212765369,0.981907845,0.121974878,-0.125316888,0.072638735,2.426702499,2.949703932,8.968851089,-12.27067947,-7.549105167,1.903893471,0.681396484,0.647949219,-0.701660156, 
239,1212773702,0.981903613,0.120813973,-0.126378581,0.072793812,1.8782655,2.432671547,9.119942665,-17.09399986,-12.26138496,5.652154922,0.681884766,0.652099609,-0.686279297, 
240,1212782035,0.981848538,0.119706579,-0.127837166,0.072820678,2.9491961,2.13146472,9.512234688,-16.6488266,-18.50112152,4.571387768,0.664550781,0.659423828,-0.705810547, 
241,1212790368,0.981794238,0.118659623,-0.129194617,0.072869956,3.063432693,1.945538998,9.551749229,-15.95339584,-16.63616943,4.575357437,0.662109375,0.666259766,-0.700927734, 
242,1212798701,0.98172015,0.117679425,-0.130672932,0.072821118,1.550443053,2.300819397,9.605043411,-15.05502987,-19.05287552,3.372922659,0.6484375,0.669921875,-0.716796875, 
243,1212807034,0.981633782,0.116486646,-0.13241601,0.072755501,3.430897474,2.946754217,8.884638786,-18.45558548,-21.93966103,3.952497244,0.64453125,0.677001953,-0.707275391, 
244,1212815367,0.981654584,0.11498455,-0.133661747,0.072587118,2.946721792,2.019843578,9.129375458,-22.23744774,-15.40943146,2.242463827,0.629882813,0.682128906,-0.726318359, 
245,1212823700,0.981666505,0.113662742,-0.134848967,0.072310343,2.2023592,2.343886137,8.950779915,-20.19114685,-14.47089958,0.346061319,0.626708984,0.685546875,-0.712890625, 
246,1212832033,0.981720746,0.112192087,-0.135856852,0.071984276,3.025342464,2.499584436,8.697853088,-21.91849709,-12.41679001,-0.348020822,0.607910156,0.693359375,-0.727294922, 
247,1212840366,0.981783271,0.110793032,-0.13678804,0.071531303,2.189252377,1.573317885,9.152377129,-21.38669014,-11.11898994,-2.33107543,0.607910156,0.698242188,-0.723388672, 
248,1212848699,0.98182708,0.10947413,-0.137804374,0.071007796,2.619300604,2.232562542,9.197182655,-20.23156357,-13.00225258,-3.276625395,0.592773438,0.697021484,-0.744140625, 
249,1212857032,0.981894374,0.108138494,-0.138697833,0.070381299,3.39870286,1.936671257,8.99958992,-20.82878876,-10.92936802,-4.84736824,0.587402344,0.700683594,-0.739257813, 
250,1212865365,0.982003272,0.106881715,-0.139281958,0.069624797,2.179480314,1.714124084,9.497341156,-19.51423836,-7.452207565,-7.248497486,0.571044922,0.706542969,-0.751708984, 
251,1212873698,0.982083261,0.105792984,-0.139912516,0.068892337,2.385950565,2.048516035,9.353362083,-17.46204758,-7.750972271,-7.153494358,0.567626953,0.707519531,-0.754394531, 
252,1212882031,0.982184827,0.104784273,-0.14033857,0.068115011,2.895345449,1.750001192,9.31293869,-16.04389,-5.597890377,-8.228702545,0.549316406,0.708496094,-0.770019531, 
253,1212890364,0.982263505,0.104034543,-0.140729934,0.067318074,3.647368908,1.943759441,8.85035038,-12.78048229,-4.945981503,-9.02059269,0.544677734,0.707275391,-0.776367188, 
254,1212898697,0.982420802,0.103068605,-0.140728563,0.066506259,2.080002785,1.443593502,9.13846302,-15.21695995,0.192529455,-9.438643456,0.526611328,0.708251953,-0.794189453, 
255,1212907030,0.982446492,0.102606975,-0.1412009,0.065836236,2.631058216,1.610627174,8.759130478,-8.636686325,-6.222057819,-7.702126026,0.516601563,0.706298828,-0.803466797, 
256,1212915363,0.982547522,0.101978153,-0.141299546,0.065089345,3.176738501,1.762234807,8.982842445,-10.55119896,-1.48521626,-9.01713562,0.494628906,0.704833984,-0.826660156, 
257,1212923696,0.982589185,0.101547949,-0.14160873,0.064457864,2.256207466,1.739043832,9.246254921,-8.008239746,-3.968567371,-7.491831303,0.482177734,0.700927734,-0.834228516, 
258,1212932029,0.982610047,0.10123919,-0.141963795,0.063840985,4.089746475,2.13407445,8.885110855,-6.090732098,-5.207886696,-7.451386452,0.450683594,0.69921875,-0.857666016, 
259,1212940362,0.982731223,0.100866392,-0.141849354,0.062814772,2.963548183,3.014121294,9.287177086,-7.742416382,1.305724382,-13.59040451,0.435058594,0.691894531,-0.875732422, 
260,1212948695,0.982928813,0.099699385,-0.142101511,0.060989656,1.223083258,3.224602222,10.35984421,-20.19652939,-4.409083843,-22.4040699,0.397949219,0.685058594,-0.889892578, 
261,1212957028,0.983013928,0.099753372,-0.142249122,0.05915451,3.959886551,-2.734535933,8.672290802,-3.739346743,-3.764064789,-24.9701767,0.368164063,0.679443359,-0.895019531, 
262,1212965361,0.983137965,0.099551588,-0.142252848,0.057396516,3.251420259,4.269042492,9.443076134,-6.714212418,-1.918789029,-23.66080475,0.320068359,0.669921875,-0.908203125, 
263,1212973694,0.983277142,0.099351496,-0.142149031,0.055590861,3.095584393,0.057003651,8.907209396,-6.977040291,-0.020260872,-24.46616745,0.282226563,0.660644531,-0.904541016, 
264,1212982027,0.983364046,0.099415004,-0.142113745,0.054009408,2.676315308,1.973384619,8.833634377,-2.698332548,-1.42507422,-21.8165493,0.230957031,0.650146484,-0.903320313, 
265,1212990360,0.983414769,0.099640593,-0.14210473,0.05267676,3.34833312,1.550105572,9.017739296,-0.251326948,-1.151846886,-18.69770622,0.195800781,0.640380859,-0.891113281, 
266,1212998693,0.983475327,0.099726953,-0.14198947,0.051685102,3.549838781,2.349258423,8.991355896,-1.143471003,0.393396348,-13.97571945,0.153564453,0.628173828,-0.874267578, 
267,1213007026,0.983505785,0.099824652,-0.141928181,0.051079981,3.107717276,2.087212086,8.65613842,-0.49568668,0.603304923,-8.671468735,0.124511719,0.619873047,-0.852783203, 
268,1213015359,0.983515441,0.099913992,-0.141876668,0.050862029,3.605112314,2.240952015,8.939163208,0.43151024,0.489808232,-3.395628214,0.091308594,0.608642578,-0.827148438, 
269,1213023692,0.983556628,0.099787943,-0.141661867,0.050912805,3.189923763,2.144581556,9.295440674,-2.157435894,3.757416487,0.403411448,0.079833984,0.598632813,-0.797363281, 
270,1213032025,0.983546257,0.09976308,-0.141599134,0.051334437,3.281213284,2.158612967,9.05339241,0.169655904,1.561072588,5.476695061,0.060546875,0.590576172,-0.779541016, 
271,1213040358,0.983557045,0.099664003,-0.141392499,0.051885083,3.438081503,2.059348106,9.250570297,-0.780158341,4.26129961,7.153351307,0.058349609,0.577880859,-0.750976563, 
272,1213048691,0.983561039,0.099573627,-0.141135916,0.05267559,2.822283506,1.638738036,9.378488541,0.117863908,4.761750698,10.31857967,0.049560547,0.572998047,-0.735107422, 
273,1213057024,0.983546615,0.099581107,-0.140892923,0.053571921,3.147828341,2.021385908,8.931515694,1.394426227,5.103521824,11.59606457,0.054931641,0.560058594,-0.716796875, 
274,1213065357,0.983545899,0.099609993,-0.140519306,0.054504547,2.648746967,1.60453248,9.043253899,2.100021839,6.445016384,11.85248947,0.049804688,0.549072266,-0.705322266, 
275,1213073690,0.983503461,0.099786736,-0.140292808,0.055522718,2.890242815,1.580680609,9.130254745,3.947909594,4.867102146,12.96176338,0.060058594,0.538330078,-0.690917969, 
276,1213082023,0.983484626,0.09989626,-0.139924198,0.056580171,2.840592146,1.633970737,9.032968521,3.454502821,6.452213764,13.40371323,0.055175781,0.52734375,-0.685302734, 
277,1213090356,0.983423889,0.100188151,-0.13967751,0.057718866,2.830165148,1.628021836,9.272874832,5.780967236,5.177623749,14.36007309,0.063964844,0.512695313,-0.679931641, 
278,1213098689,0.983386993,0.100393094,-0.13930665,0.058877468,2.966442823,1.337221861,9.404536247,4.968380928,6.514763355,14.59789848,0.062255859,0.497070313,-0.686523438, 
279,1213107022,0.983319521,0.100701682,-0.139055133,0.06005758,2.967504025,1.763653874,8.911296844,6.102195263,5.273113728,14.88593292,0.065185547,0.483886719,-0.679199219, 
280,1213115355,0.98324126,0.100970812,-0.138853431,0.061342061,3.051240206,0.894274294,7.760695934,5.996742249,4.270470619,16.44371605,0.056640625,0.468505859,-0.679931641, 
281,1213123688,0.983167887,0.101349957,-0.138534635,0.06259878,1.326784611,1.278684974,9.174883842,7.273663044,6.21620512,15.69321823,0.05859375,0.452636719,-0.683837891, 
282,1213132021,0.983000875,0.101934753,-0.138652131,0.063995823,2.08689189,3.350837708,10.73848724,10.32465363,-0.327017069,17.88651466,0.044921875,0.434570313,-0.692382813, 
283,1213140354,0.982873499,0.102244802,-0.138666615,0.065412715,3.930050135,1.910618424,9.579366684,6.444247723,1.89121449,18.49987221,0.038330078,0.416503906,-0.692871094, 
284,1213148687,0.982777476,0.102227785,-0.138651758,0.066897005,2.205609798,1.075933933,8.175160408,2.374888897,2.255859137,19.96444702,0.018310547,0.401611328,-0.701171875, 
285,1213157020,0.982601821,0.102346778,-0.139140055,0.0682652,2.851816416,1.782817483,9.817736626,3.39909935,-4.505647659,18.92099571,0.006591797,0.384765625,-0.69921875, 
286,1213165353,0.982516348,0.101904318,-0.139552608,0.069306836,3.298424244,2.743653059,11.27426624,-4.626981735,-3.721262217,15.38810062,-0.017578125,0.366455078,-0.694580078, 
287,1213173686,0.982385218,0.101110004,-0.140546143,0.070312753,3.004651546,1.650909543,9.236316681,-10.17666817,-10.89909172,16.43398476,-0.033203125,0.351806641,-0.68359375, 
288,1213182019,0.982309043,0.099971116,-0.141573384,0.070942625,4.356022835,1.731637955,9.022842407,-15.42948246,-11.91116238,12.01739597,-0.05859375,0.33984375,-0.679199219, 
289,1213190352,0.982254207,0.098657839,-0.142833233,0.0710162,1.342665553,1.397701025,10.62488937,-19.36111832,-15.13471603,5.137590885,-0.072998047,0.325927734,-0.655517578, 
290,1213198685,0.982124627,0.097372063,-0.144931078,0.070329353,2.383538723,1.76371026,10.35838509,-20.9634304,-28.13119888,-3.974770069,-0.098144531,0.315429688,-0.632568359, 
291,1213207018,0.982016683,0.095646553,-0.14764756,0.068530113,0.673044622,2.087772131,9.910965919,-29.98158264,-37.04080582,-17.31180573,-0.109863281,0.303466797,-0.6015625, 
292,1213215351,0.981651187,0.094262667,-0.152294949,0.065444671,-2.610214472,1.190234303,10.482584,-29.22636223,-66.11964417,-32.59460068,-0.133789063,0.295166016,-0.575683594, 
293,1213223684,0.98042351,0.095308736,-0.161178008,0.060899489,-1.65886271,-0.283904731,9.741526604,-2.409392595,-128.7355499,-51.10433578,-0.149902344,0.280029297,-0.543457031, 
294,1213232017,0.979077697,0.097081259,-0.170134157,0.055113472,12.79139996,-2.460574389,7.416828156,4.962535858,-132.6657104,-69.26807404,-0.182128906,0.266601563,-0.523193359, 
295,1213240350,0.973141372,0.105033606,-0.198438227,0.050867192,-28.04457855,-4.003034115,23.64401436,83.0144043,-406.199646,-33.67048264,-0.197753906,0.247558594,-0.488769531, 
296,1213248683,0.961607933,0.121667229,-0.240438446,0.051944081,-4.993381023,4.493382931,13.95946884,212.5148468,-603.6900635,37.57085419,-0.258789063,0.219726563,-0.460693359, 
297,1213257016,0.946733773,0.133871034,-0.287775934,0.054406144,1.327101707,9.835276604,11.35526657,160.1160278,-679.6271362,81.91507721,-0.314208984,0.200927734,-0.410644531, 
298,1213265349,0.928382933,0.142786726,-0.338186413,0.057864882,-0.19923234,4.076619625,11.42946911,125.5167236,-729.4430542,116.1401672,-0.378173828,0.190185547,-0.365234375, 
299,1213273682,0.906104624,0.150065199,-0.391111761,0.059057645,0.37106958,3.289165974,11.90135002,99.60696411,-782.8186035,103.0003967,-0.432617188,0.182617188,-0.294921875, 
300,1213282015,0.878906727,0.153339595,-0.447832942,0.058796842,-1.494776726,5.529167175,13.75986385,49.11698914,-856.6734619,118.1627655,-0.498535156,0.185058594,-0.226074219, 
301,1213290348,0.844273627,0.150996447,-0.511227846,0.055225909,-5.165424347,7.590353966,18.16837311,-29.05244637,-985.6914063,133.0479126,-0.543212891,0.195800781,-0.125976563, 
302,1213298681,0.797287166,0.139456868,-0.585580766,0.044520043,-5.662994385,10.19488144,25.52701569,-168.738327,-1208.500732,146.9025421,-0.604248047,0.220458984,-0.003173828, 
303,1213307014,0.753334284,0.127085298,-0.644728899,0.025738876,19.46772003,6.99718523,39.06539154,-239.4600372,-1031.743896,34.13750458,-0.639160156,0.247070313,0.156005859, 
304,1213315347,0.746978462,0.124855623,-0.652821243,0.01612258,52.29016113,-10.25160122,62.4855423,-100.4906616,-156.0697632,-63.65604019,-0.673828125,0.253417969,0.218505859, 
305,1213323680,0.761131942,0.125932306,-0.635894835,0.021412358,15.00584316,-15.33609295,41.11261749,37.65988159,309.6781311,12.58252239,-0.681396484,0.26171875,0.181152344, 
306,1213332013,0.775325775,0.131816134,-0.616748214,0.033430852,-4.256754398,-13.05050659,17.0510025,147.3829193,343.7810364,36.81632614,-0.69921875,0.283691406,0.090820313, 
307,1213340346,0.777934074,0.142320767,-0.610375643,0.044790611,-11.24097061,-3.087503672,4.413250446,206.2480164,105.2902145,19.2461853,-0.691894531,0.297607422,0.021240234, 
308,1213348679,0.776233554,0.149091572,-0.610336065,0.052195143,-0.255917877,6.262162685,3.977980137,137.5635834,-3.391997337,23.15595627,-0.703857422,0.311523438,-0.02734375, 
309,1213357012,0.778687537,0.148243099,-0.607143819,0.055201948,5.287176609,7.403769493,4.232903004,13.1401968,60.79687881,30.85023308,-0.695556641,0.331787109,-0.064208984, 
310,1213365345,0.783571184,0.142572269,-0.602227867,0.054883383,2.541563034,2.308838844,5.688946247,-69.98309326,97.2097702,30.01204872,-0.703857422,0.358154297,-0.103027344, 
311,1213373678,0.788055182,0.137087539,-0.597669303,0.054484062,2.910642862,-1.894262671,8.368774414,-68.07624817,88.93318176,28.78327751,-0.681152344,0.390380859,-0.129394531, 
312,1213382011,0.793180346,0.133727208,-0.591487646,0.055907395,4.964808941,-1.948914409,11.23071671,-30.12216568,114.454216,27.35424423,-0.68359375,0.419921875,-0.172607422, 
313,1213390344,0.800141275,0.132009208,-0.582106531,0.059169531,5.359042645,0.446200758,11.82312775,1.885600328,165.5344086,26.92989922,-0.654541016,0.446044922,-0.208984375, 
314,1213398677,0.808525383,0.131113902,-0.570177913,0.063201495,3.798191309,2.219564438,9.871619225,16.53624725,206.5579376,22.86125946,-0.647949219,0.470703125,-0.260009766, 
315,1213407010,0.817425489,0.130131707,-0.557192266,0.066478364,2.587362051,4.073553085,8.191151619,9.689293861,220.1216888,12.95440388,-0.614746094,0.491943359,-0.310302734, 
316,1213415343,0.826521873,0.128256872,-0.543827415,0.068298362,2.485358715,5.791584969,6.654905796,-11.56426716,225.0491791,2.396818161,-0.609130859,0.516113281,-0.364257813, 
317,1213423676,0.835854828,0.125632852,-0.529966295,0.068557687,2.330831766,6.289750099,5.774905682,-31.65869141,229.3958435,-10.65144062,-0.573242188,0.537353516,-0.420654297, 
318,1213432009,0.844996214,0.12274608,-0.51609832,0.067517251,2.548668861,6.365069866,6.280052185,-43.85937119,227.0936737,-23.69314194,-0.558349609,0.562011719,-0.486083984, 
319,1213440342,0.854300559,0.119886689,-0.501491189,0.06561742,3.717223167,6.623505116,6.110622883,-49.22385406,234.3086548,-35.06209183,-0.505126953,0.581787109,-0.546875, 
320,1213448675,0.863821983,0.117071331,-0.485962927,0.062827282,3.951163292,6.314369678,4.678086281,-54.37866592,246.1769257,-47.75249481,-0.465087891,0.605957031,-0.613525391, 
321,1213457008,0.873001993,0.114663579,-0.470355302,0.059049651,3.69680953,5.705367088,4.104364872,-55.54005432,241.8028564,-61.80158615,-0.385253906,0.627929688,-0.662841797, 
322,1213465341,0.881684899,0.112691134,-0.454935998,0.054470152,4.5577178,5.552957535,4.972752571,-54.84757996,235.8014069,-73.78335571,-0.327148438,0.651123047,-0.709472656, 
323,1213473674,0.890096724,0.110565826,-0.43942976,0.049050413,5.462298393,5.629154205,7.026849747,-61.50459671,232.8639374,-82.68139648,-0.237792969,0.674560547,-0.726074219, 
324,1213482007,0.898151398,0.108116165,-0.424024999,0.042884976,6.917193413,4.749076366,9.043045044,-69.47465515,229.6579895,-89.71860504,-0.180664063,0.694091797,-0.747558594, 
325,1213490340,0.906208575,0.105484828,-0.407820642,0.036644474,8.234170914,2.781799316,8.590117455,-71.72412872,238.4161682,-90.50022888,-0.104980469,0.708984375,-0.739990234, 
326,1213498673,0.914037526,0.102697827,-0.39121896,0.030625723,8.438429832,1.31986177,6.761788368,-71.85391235,243.6175232,-87.60166931,-0.059570313,0.730224609,-0.750976563, 
327,1213507006,0.921462774,0.099827841,-0.374610633,0.024677455,8.793811798,0.764038742,6.510910034,-71.97834778,240.5136414,-85.84580231,0.011474609,0.7421875,-0.737060547, 
328,1213515339,0.928453863,0.096418902,-0.358219445,0.018898502,9.362567902,0.741671741,8.175350189,-77.37982178,237.0890656,-80.74089813,0.0546875,0.757080078,-0.746337891, 
329,1213523672,0.935303211,0.092451461,-0.341288,0.01358592,10.37948513,0.204779431,9.615849495,-81.89647675,242.9164124,-72.47550201,0.123779297,0.765380859,-0.722900391, 
330,1213532005,0.942040861,0.08833997,-0.323531508,0.009157158,10.64251614,-1.243665814,10.20671749,-79.29404449,255.2930145,-61.6973877,0.164794922,0.7734375,-0.728759766, 
331,1213540338,0.948490262,0.084430993,-0.305297017,0.005738001,10.68841553,-2.312458515,10.78104401,-71.77384949,260.2763977,-49.87522507,0.236816406,0.774169922,-0.708496094, 
332,1213548671,0.954649448,0.080961451,-0.286493987,0.003526043,11.48422337,-2.619853735,11.41470623,-60.58612823,268.9699402,-36.79943466,0.288574219,0.776855469,-0.703613281, 
333,1213557004,0.960657597,0.07786686,-0.266588122,0.002448967,11.39875698,-2.542748928,11.52084446,-50.94712448,282.9923401,-24.45360374,0.372070313,0.770996094,-0.685058594, 
334,1213565337,0.966267824,0.074711904,-0.24645634,0.002286408,10.77358341,-2.070274353,11.84135056,-47.98198318,286.6078186,-12.52232361,0.432617188,0.767089844,-0.671875, 
335,1213573670,0.971469998,0.071373127,-0.226152048,0.002890915,10.89175129,-1.307106614,12.41329193,-47.34424973,287.2378845,-1.761007667,0.517089844,0.762695313,-0.631835938, 
336,1213582003,0.97626406,0.067829356,-0.205650419,0.004100069,10.84570599,-0.464327812,12.62980747,-47.8489418,290.2807617,6.667062283,0.580566406,0.762207031,-0.597412109, 
337,1213590336,0.980623782,0.064181067,-0.185001031,0.005819663,10.60907555,0.155893385,12.48088837,-47.32327652,290.480835,13.77929592,0.662353516,0.752197266,-0.533691406, 
338,1213598669,0.984458804,0.060721468,-0.164599463,0.007902307,10.39657497,0.934548497,12.45768833,-43.48319626,287.1444092,18.37869644,0.716064453,0.750488281,-0.482910156, 
339,1213607002,0.987808943,0.057626292,-0.144258365,0.010180183,10.43123627,2.284074306,12.37986755,-37.62969208,284.3619995,20.36409569,0.779296875,0.732666016,-0.40234375, 
340,1213615335,0.990675628,0.055072919,-0.124007948,0.012330443,10.18274689,4.041751862,11.73418617,-30.23218346,282.9845886,17.6324482,0.806884766,0.728027344,-0.334228516, 
341,1213623668,0.993064821,0.05282994,-0.104097232,0.014016073,9.577986717,5.780790329,11.02704334,-26.42236328,276.2015686,11.16137791,0.840087891,0.707763672,-0.250732422, 
342,1213632001,0.994966745,0.050456818,-0.085288242,0.014920646,9.34478569,7.277879238,11.46971703,-29.24442101,260.8476868,1.523204446,0.844238281,0.704101563,-0.185546875, 
343,1213640334,0.996457756,0.047685925,-0.067652605,0.014916103,10.01649189,7.9579072,13.10538578,-35.67414856,242.8922882,-9.489015579,0.849121094,0.683105469,-0.114013672, 
344,1213648667,0.997629344,0.044571899,-0.050500628,0.014149085,11.3544302,7.537056923,14.80639553,-41.01032639,236.4032288,-19.29787827,0.836425781,0.683105469,-0.065673828, 
345,1213657000,0.998511672,0.041448712,-0.033078905,0.01279752,11.45444107,7.343331814,15.38895702,-41.33446884,238.7532806,-27.36227417,0.832275391,0.666503906,0.002685547, 
346,1213665333,0.999061823,0.038748156,-0.016089018,0.010813359,11.94463921,9.198304176,14.6324358,-35.68323517,233.0299377,-35.99382401,0.809326172,0.669189453,0.040527344, 
347,1213673666,0.999310493,0.036382914,0.000426631,0.007490603,12.1264925,11.56540966,11.28510857,-31.35486794,224.9823608,-54.12094879,0.800048828,0.658203125,0.098632813, 
348,1213681999,0.999305546,0.033774182,0.015573919,0.002544587,12.59413052,12.69676685,7.254105568,-34.63315964,206.0936737,-75.75932312,0.783447266,0.674804688,0.125976563, 
349,1213690332,0.999089301,0.03055929,0.02950431,-0.004217627,14.47454357,11.50944328,4.486930847,-42.6649971,187.993576,-100.2500153,0.770019531,0.669189453,0.180908203, 
350,1213698665,0.998698473,0.026729634,0.04170195,-0.012228289,16.08640862,8.149931908,2.281299114,-50.28424454,164.2968903,-116.9603119,0.731933594,0.686279297,0.202392578, 
351,1213706998,0.998174071,0.022927202,0.051652003,-0.021362659,18.64848328,4.683001518,-0.347038001,-49.07613373,132.6149292,-131.5744019,0.689697266,0.666503906,0.255371094, 
352,1213715331,0.99756825,0.018959334,0.05943381,-0.031101432,21.78668404,2.410982609,-3.416627884,-50.01784134,103.149086,-139.3268127,0.645996094,0.678222656,0.276611328, 
353,1213723664,0.996969998,0.014226961,0.065092005,-0.040161632,24.1150322,0.172288299,-6.591492653,-60.43632126,73.52996826,-130.1126709,0.607177734,0.654052734,0.315185547, 
354,1213731997,0.996466219,0.009430998,0.068541035,-0.047642075,25.69578362,-2.713480949,-7.778255939,-61.23690796,43.76139832,-107.9987564,0.575683594,0.673095703,0.316162109, 
355,1213740330,0.996154368,0.006317793,0.069764331,-0.052639626,25.49634361,-5.97685957,-6.482747078,-39.37682724,14.37165928,-72.00546265,0.567871094,0.655761719,0.334716797, 
356,1213748663,0.996095419,0.005880277,0.068741255,-0.055094816,24.08759308,-7.356668949,-4.773392677,-3.266279936,-14.35254288,-34.20180893,0.566650391,0.678710938,0.321044922, 
357,1213756996,0.99626708,0.007710586,0.065735139,-0.055434216,21.0315609,-5.721137524,-2.105202675,27.02626228,-39.75790787,-2.765036583,0.573730469,0.663818359,0.329101563, 
358,1213765329,0.996610105,0.010364266,0.061586034,-0.053570639,18.60491562,-2.786991596,1.118184328,37.42388916,-54.79568481,28.43776131,0.584716797,0.686767578,0.302734375, 
359,1213773662,0.997051477,0.012925958,0.056898646,-0.049852356,16.20981598,-1.355713725,3.641091585,34.78129196,-61.77328873,53.91014481,0.599853516,0.665283203,0.302246094, 
360,1213781995,0.997527063,0.015747478,0.051874943,-0.044745713,14.0104332,-0.843880951,4.74350071,37.6760025,-66.27494812,73.24901581,0.614013672,0.678466797,0.272460938, 
361,1213790328,0.997994959,0.019066349,0.046524465,-0.038464759,12.43239975,-0.59484762,6.159971714,43.69895172,-69.73903656,89.76399994,0.642822266,0.662597656,0.263427734, 
362,1213798661,0.998356879,0.022925591,0.041455127,-0.032264579,4.506184101,-0.016367452,7.157897472,51.21073914,-66.00121307,88.88588715,0.666748047,0.679443359,0.227783203, 
363,1213806994,0.998330653,0.027180118,0.042974945,-0.027417663,-21.25952339,-0.937821805,4.239053726,54.46622849,25.01141548,68.25811005,0.691650391,0.665527344,0.221191406, 
364,1213815327,0.998741865,0.0321148,0.03351225,-0.01901304,-49.46138763,14.4355011,40.17644501,65.82130432,-125.0196228,121.7999802,0.706054688,0.680664063,0.197753906, 
365,1213823660,0.998658419,0.04207341,0.023497462,-0.01898565,-4.252394199,18.28626823,33.62387848,138.9249268,-134.2518463,9.140369415,0.719970703,0.662109375,0.178955078, 
366,1213831993,0.998389661,0.05038948,0.019687535,-0.017111994,9.342926025,0.248947576,0.140899792,114.3769989,-48.84584045,30.35800171,0.715820313,0.671142578,0.14453125, 
367,1213840326,0.998237729,0.056499626,0.014099687,-0.011482125,27.05900764,-9.160141945,-8.946681976,83.16384888,-70.91918182,82.56225586,0.741699219,0.66015625,0.129882813, 
368,1213848659,0.997970104,0.062673181,0.006401682,-0.009383974,19.59820557,-2.825140715,4.421984196,85.39052582,-102.8805466,35.74402618,0.761230469,0.675292969,0.083251953, 
369,1213856992,0.997769475,0.066523708,-0.002844946,-0.004889362,3.676301718,3.871610165,15.92526436,53.23664474,-121.9250259,69.72875214,0.795166016,0.675537109,0.050292969, 
370,1213865325,0.997573078,0.068707019,-0.011236941,0.001513543,-6.867486,5.411661148,20.2264061,30.57748985,-109.0147705,95.23805237,0.823242188,0.690185547,0.006103516, 
371,1213873658,0.997062862,0.073992625,-0.018135931,0.007952042,-3.313005447,5.027910233,14.50775623,73.28672028,-88.05448914,93.7870636,0.854492188,0.684326172,-0.012451172, 
372,1213881991,0.996219337,0.081901513,-0.025602106,0.013604412,-1.998972297,8.255472183,2.896269798,109.5201797,-97.56032562,83.02337646,0.870849609,0.690429688,-0.046875, 
373,1213890324,0.995457232,0.087232664,-0.033946238,0.017452499,3.967327356,12.70950985,8.245091438,73.11552429,-110.5993118,60.12791824,0.892578125,0.674072266,-0.056396484, 
374,1213898657,0.994660258,0.091446318,-0.042712811,0.021579515,-0.437167048,7.130452156,15.23804569,58.08659363,-116.3043137,65.04245758,0.89453125,0.678710938,-0.082763672, 
375,1213906990,0.993713498,0.096682832,-0.051357724,0.02344398,0.12293642,2.986173153,14.94964314,70.69633484,-117.3609161,33.33432007,0.917236328,0.665771484,-0.109863281, 
376,1213915323,0.99278003,0.100463644,-0.060042344,0.026285866,1.306807518,-1.056324959,15.24983978,51.74066925,-116.6418762,47.81764984,0.922119141,0.670898438,-0.161376953, 
377,1213923656,0.991279244,0.107992791,-0.069185905,0.030295731,0.321526408,-3.742721081,13.39757538,104.207283,-122.6129608,61.46455765,0.942626953,0.658203125,-0.198486328, 
378,1213931989,0.989391208,0.117799953,-0.07835447,0.033021122,2.437086344,3.891457319,11.20704651,134.8953552,-126.6851044,42.02902985,0.946533203,0.657470703,-0.277587891, 
379,1213940322,0.987467885,0.125519186,-0.088338241,0.036739226,1.318592191,7.388801575,11.79756069,107.0065002,-134.7647095,59.06106186,0.958496094,0.634521484,-0.330566406, 
380,1213948655,0.985622466,0.1312823,-0.098737724,0.039565731,2.487827063,6.740511894,11.18699074,79.25099945,-141.3580475,50.06972885,0.951171875,0.626953125,-0.399658203, 
381,1213956988,0.983989298,0.134389848,-0.109138273,0.04236187,5.187800884,4.670562744,11.38491535,42.57745361,-139.200058,53.09736252,0.956542969,0.611328125,-0.449707031, 
382,1213965321,0.982647955,0.137822747,-0.115842223,0.044607297,5.263777733,2.196736336,12.58250809,48.02165222,-90.44299316,38.20714569,0.9375,0.60546875,-0.504394531, 
383,1213973654,0.981484354,0.141487941,-0.120565318,0.04620488,4.113361359,4.547219276,10.13530636,50.73412704,-64.25525665,25.16803169,0.939697266,0.590087891,-0.54296875, 
384,1213981987,0.98084271,0.143046692,-0.123226196,0.047977157,4.58968401,6.387854576,11.20186043,23.15993881,-34.38433838,26.72654915,0.924804688,0.592285156,-0.582275391, 
385,1213990320,0.980575144,0.142889425,-0.124912642,0.049526971,2.987547874,5.498087406,10.41448593,-0.725011587,-19.39140129,24.41267967,0.924072266,0.583496094,-0.592285156, 
386,1213998653,0.980558872,0.141474918,-0.12584731,0.051504947,3.521444082,4.050579548,10.74489117,-16.65518951,-7.644602299,30.75462532,0.906738281,0.586181641,-0.610107422, 
387,1214006986,0.980549574,0.140583277,-0.126368776,0.052831918,3.793845177,2.59487772,10.09142685,-10.74025822,-3.172631502,20.21541786,0.905517578,0.583251953,-0.615478516, 
388,1214015319,0.980662346,0.139219388,-0.126524985,0.05396216,2.496277094,3.419468164,9.946208954,-17.13206482,1.402187943,17.63534355,0.882568359,0.582763672,-0.632080078, 
389,1214023652,0.980756938,0.137762427,-0.126987413,0.054890525,2.161661148,4.017945766,9.245292664,-19.21714211,-2.545467138,15.62957191,0.883056641,0.581298828,-0.642089844, 
390,1214031985,0.981027484,0.135057241,-0.127237156,0.056186546,3.380872488,3.547260523,9.242554665,-35.29626083,1.738479137,22.27815628,0.865478516,0.5859375,-0.662109375, 
391,1214040318,0.981248736,0.132804468,-0.127545848,0.056984507,1.209966183,1.36178875,8.998560905,-30.30966187,0.110512719,14.87987423,0.862792969,0.584472656,-0.665771484, 
392,1214048651,0.981466234,0.130590141,-0.127952203,0.057443652,3.664214373,3.446386814,8.85763073,-30.16396713,-2.393037796,10.45652103,0.839599609,0.591064453,-0.681396484, 
393,1214056984,0.981769919,0.127677083,-0.128170192,0.058312103,3.171336174,1.771225691,9.278043747,-39.16860962,2.114087105,16.77434158,0.836914063,0.594238281,-0.68359375, 
394,1214065317,0.981972754,0.125944197,-0.128371984,0.058220305,1.544690013,1.021410584,9.081203461,-24.44851875,-1.002029419,1.80953145,0.814697266,0.602050781,-0.696044922, 
395,1214073650,0.982176423,0.123999394,-0.128725916,0.058177061,3.614796638,3.18987751,9.142932892,-27.63572693,-2.270882845,3.080075264,0.806152344,0.603515625,-0.692138672, 
396,1214081983,0.982401848,0.12205302,-0.128853276,0.058205977,2.839036226,1.392346382,9.656546593,-27.09790421,0.421418428,3.67827034,0.784423828,0.613525391,-0.706542969, 
397,1214090316,0.982568383,0.120816052,-0.129003227,0.057639308,2.659411192,2.54187274,9.356471062,-18.77403831,-1.029308438,-5.565386772,0.769287109,0.616943359,-0.696533203, 
398,1214098649,0.98277396,0.119077988,-0.129159704,0.057400875,3.295000792,3.19452858,9.279813766,-24.74623489,-0.632415831,-0.236368299,0.746582031,0.622314453,-0.704833984, 
399,1214106982,0.982982635,0.117450185,-0.129172936,0.057151012,2.860882044,1.58448422,9.644834518,-23.44981575,1.727719307,-0.847216785,0.737548828,0.632324219,-0.690917969, 
400,1214115315,0.983176112,0.11626102,-0.129044741,0.056541499,3.273538351,2.155057192,8.990034103,-17.74316597,2.163007498,-6.681296349,0.718261719,0.640869141,-0.701171875, 
401,1214123648,0.983357668,0.115005903,-0.128976375,0.056104273,2.760467291,2.070854187,8.446608543,-18.63766289,2.185547829,-4.147022247,0.716064453,0.6484375,-0.681152344, 
402,1214131981,0.983513117,0.113997996,-0.128869027,0.055683222,2.456319571,1.461803198,8.551620483,-14.91294479,1.974000096,-4.390767574,0.695068359,0.653320313,-0.688232422, 
403,1214140314,0.983675241,0.113086417,-0.128596231,0.055307135,3.149638891,2.09068799,8.702612877,-13.69652271,4.746510506,-4.235468864,0.692382813,0.662109375,-0.669433594, 
404,1214148647,0.983771801,0.112600982,-0.128373384,0.055099986,1.999238968,1.516627669,8.873250008,-7.28791523,3.368950844,-2.558708429,0.678466797,0.671630859,-0.681640625, 
405,1214156980,0.98384726,0.112238824,-0.128181458,0.054936171,2.844085455,2.159133196,9.620926857,-5.814815044,3.412443399,-2.145089626,0.676757813,0.677246094,-0.664306641, 
406,1214165313,0.983920693,0.111970246,-0.12793456,0.054745093,2.57285285,1.840981722,9.741978645,-4.2702775,3.514849424,-2.743643522,0.659667969,0.683349609,-0.684326172, 
407,1214173646,0.983991683,0.111698836,-0.127715021,0.054534074,2.943747044,2.440377474,9.378074646,-4.638045788,3.631957293,-2.979729414,0.661376953,0.685791016,-0.666748047, 
408,1214181979,0.984064937,0.111335076,-0.127511427,0.054433279,2.72125411,1.721958041,9.145983696,-5.432727814,3.138473749,-1.288447142,0.650146484,0.690185547,-0.687988281, 
409,1214190312,0.984113157,0.111161947,-0.127388015,0.054200735,2.72811079,2.189245224,8.893938065,-3.382692575,2.18482995,-3.279210806,0.650146484,0.697021484,-0.678955078, 
410,1214198645,0.984190524,0.11070668,-0.127241105,0.054074563,2.6404562,2.678029299,8.641358376,-6.765232563,2.404523611,-1.387241483,0.637695313,0.701904297,-0.691162109, 
411,1214206978,0.984264612,0.110087395,-0.127257615,0.053953521,2.256293058,2.337225437,8.897708893,-9.366410255,0.838853478,-0.794553697,0.63671875,0.705322266,-0.680908203, 
412,1214215311,0.984377146,0.109132729,-0.127277598,0.053793587,2.870111704,2.424006462,9.024263382,-13.76127529,0.528869987,-0.741993368,0.619628906,0.711669922,-0.695800781, 
413,1214223644,0.984490097,0.108135566,-0.127323925,0.053627454,2.216046572,1.91095233,9.256884575,-14.64496517,0.711806774,-0.725087821,0.620361328,0.714355469,-0.687255859, 
414,1214231977,0.984604597,0.10706263,-0.127454698,0.053367607,2.814016819,2.250869513,9.270586014,-15.62089729,-1.02928257,-1.725016832,0.606445313,0.720947266,-0.696777344, 
415,1214240310,0.984710991,0.105808869,-0.12777923,0.053128906,2.472249746,1.731209636,9.305927277,-18.4407196,-2.988823652,-0.836509943,0.604248047,0.723632813,-0.689697266, 
416,1214248643,0.984779179,0.104589492,-0.128414765,0.052745819,2.098465919,1.983297944,9.284978867,-18.1227684,-8.016515732,-2.363221407,0.588867188,0.729492188,-0.700683594, 
417,1214256976,0.984819233,0.10324505,-0.129333317,0.052398719,2.024990082,2.14044714,9.37591362,-20.1962471,-11.24608898,-1.237731814,0.586181641,0.731689453,-0.699707031, 
418,1214265309,0.984806895,0.101855896,-0.130670637,0.052031934,2.233916283,1.797005296,9.196261406,-20.78563118,-17.51630783,-0.784615815,0.5703125,0.734130859,-0.716308594, 
419,1214273642,0.984758377,0.100529335,-0.132236511,0.051574327,3.005123854,2.161784172,9.041485786,-20.49173737,-20.34366417,-1.777936816,0.569335938,0.738525391,-0.712890625, 
420,1214281975,0.984765947,0.099102542,-0.133455589,0.051049471,2.31009078,1.737219095,9.316411972,-21.52485847,-16.07191658,-3.02724576,0.550292969,0.742675781,-0.730712891, 
421,1214290308,0.984774053,0.097963765,-0.134483367,0.050386306,1.743120909,1.437497139,9.269065857,-18.0235939,-13.37048435,-5.684800148,0.546630859,0.744140625,-0.733154297, 
422,1214298641,0.984794199,0.096938089,-0.135336146,0.049689017,3.808442831,1.884018064,8.713606834,-16.17180824,-11.60266304,-6.605810165,0.524902344,0.742431641,-0.747558594, 
423,1214306974,0.984837651,0.096026883,-0.135953531,0.048905045,1.908587456,1.305756807,9.441045761,-14.92833996,-8.073892593,-8.313410759,0.523925781,0.746582031,-0.749267578, 
424,1214315307,0.984823287,0.095390387,-0.136765793,0.048168112,2.517628431,2.066455364,9.482736588,-10.89952374,-11.43737221,-7.904246807,0.500244141,0.746826172,-0.776123047, 
425,1214323640,0.984848261,0.094670497,-0.137357593,0.047389664,2.970258236,1.820116878,9.131798744,-12.28661251,-7.884959221,-8.610456467,0.490722656,0.743652344,-0.780029297, 
426,1214331973,0.984875202,0.094138019,-0.137801662,0.046594709,2.314795017,1.593034148,9.56067276,-9.411876678,-6.514265537,-9.394228935,0.469726563,0.741943359,-0.804199219, 
427,1214340306,0.984873772,0.093822844,-0.138282925,0.045828529,3.3275702,1.608608007,9.254208565,-6.677630901,-6.68731308,-9.3390522,0.457763672,0.73828125,-0.817138672, 
428,1214348639,0.984929979,0.093413614,-0.138420776,0.04503477,3.088011026,1.741339803,8.872117043,-7.585938454,-2.391524792,-10.02479839,0.428955078,0.729980469,-0.838867188, 
429,1214356972,0.984969795,0.093213551,-0.138560563,0.044136152,2.058229446,2.35466671,8.814461708,-5.207016468,-2.22710681,-11.81715488,0.408203125,0.721435547,-0.852294922, 
430,1214365305,0.985102892,0.092477694,-0.138651684,0.042393643,1.55081892,2.794824362,9.924973488,-13.88786793,-2.631582499,-22.35829544,0.371582031,0.717041016,-0.869628906, 
431,1214373638,0.985102296,0.092686497,-0.139037713,0.040652934,2.700344801,-2.59264493,9.150876999,-1.369260907,-6.949657917,-23.66861725,0.33984375,0.706787109,-0.875732422, 
432,1214381971,0.985141993,0.092814997,-0.139140651,0.039010689,4.298278809,4.272089005,8.904541016,-1.881776094,-3.348191738,-22.57801056,0.290771484,0.697021484,-0.892578125, 
433,1214390304,0.985213816,0.09277337,-0.139082342,0.037471946,2.201396465,0.126422212,9.41582489,-4.210828304,-0.409930438,-21.06382561,0.256103516,0.682617188,-0.885498047, 
434,1214398637,0.985229254,0.093050852,-0.1391453,0.03611993,3.571086407,2.244134188,9.161014557,0.747129083,-2.554508209,-18.96985626,0.20703125,0.673095703,-0.890136719, 
435,1214406970,0.985262275,0.093222082,-0.139076307,0.035030343,2.833951712,1.761111856,9.126227379,-0.420713872,0.123908892,-15.37241173,0.170654297,0.662597656,-0.875, 
436,1214415303,0.985245824,0.09353184,-0.139150992,0.034365952,3.290440559,2.048794985,9.149196625,2.538178682,-1.907902002,-9.686793327,0.127929688,0.647460938,-0.861328125, 
437,1214423636,0.985238969,0.093759961,-0.139133632,0.034005269,4.685955048,2.193498135,8.827887535,1.763014913,0.254054785,-5.534595966,0.105957031,0.637939453,-0.840332031, 
438,1214431969,0.985274673,0.093750149,-0.1388852,0.034014698,2.564047575,2.118860483,9.129585266,-0.418741524,3.588695049,-0.385417402,0.072265625,0.624755859,-0.814208984, 
439,1214440302,0.985240519,0.094017617,-0.138850808,0.034402393,3.310152054,1.842145801,9.031516075,3.769301414,1.38784337,4.520131111,0.058349609,0.611816406,-0.788574219, 
440,1214448635,0.985243917,0.094087906,-0.138635531,0.034976728,3.14062047,1.767568231,8.939545631,1.772031188,3.769352198,7.173074245,0.040527344,0.604248047,-0.763916016, 
441,1214456968,0.98521328,0.094300225,-0.138513997,0.035742968,2.329877615,1.852705121,9.220924377,3.780622959,3.089653492,9.642415047,0.041259766,0.593017578,-0.741455078, 
442,1214465301,0.985170066,0.094598204,-0.138382107,0.0366465,2.590574741,1.573306918,9.291259766,5.504589558,2.867244959,11.32929325,0.031738281,0.582519531,-0.723876953, 
443,1214473634,0.98511529,0.094969824,-0.138251245,0.037637144,2.774936199,1.416728616,9.384077072,6.404750347,3.381860495,12.38326645,0.034667969,0.569580078,-0.703369141, 
444,1214481967,0.985046625,0.095470466,-0.138115451,0.038654033,3.035345554,1.925888538,9.352992058,8.501250267,2.914887428,12.48823452,0.031738281,0.557861328,-0.697753906, 
445,1214490300,0.984988034,0.095967285,-0.137905419,0.039657354,2.828707218,1.581068158,9.541566849,8.178537369,4.39764452,12.21293259,0.042236328,0.548583984,-0.688476563, 
446,1214498633,0.984917462,0.096495345,-0.137734935,0.04070913,2.723891497,1.354910731,8.781846046,8.958489418,3.411061287,12.86476421,0.037109375,0.536621094,-0.677978516, 
447,1214506966,0.984820664,0.097146191,-0.137649715,0.041771561,3.507407427,1.434530139,8.105963707,10.36207294,2.626727343,12.9098196,0.045898438,0.518798828,-0.675292969, 
448,1214515299,0.984759212,0.097691625,-0.137356669,0.042898092,1.637554884,0.668138683,8.057090759,9.395086288,5.181133747,13.6724844,0.041015625,0.506835938,-0.678710938, 
449,1214523632,0.984609306,0.098658912,-0.137333408,0.044180945,1.846621752,1.963989258,9.860414505,15.10137749,1.799823403,15.41607189,0.048828125,0.489013672,-0.671142578, 
450,1214531965,0.984463096,0.099588402,-0.137251064,0.045585304,3.377100468,2.879442453,10.52975464,15.11152077,2.316001654,17.04037476,0.037597656,0.472412109,-0.677978516, 
451,1214540298,0.984347403,0.100410484,-0.136977434,0.047081791,3.025090456,1.572293282,9.146899223,13.65391541,5.624234676,18.21184349,0.043457031,0.455322266,-0.680908203, 
452,1214548631,0.984213769,0.101259179,-0.136740953,0.048717096,1.850556135,0.969098568,8.771271706,14.53148746,4.793745041,20.10248566,0.029541016,0.438476563,-0.696289063, 
453,1214556964,0.984010696,0.102360159,-0.136801392,0.050318755,2.770176411,2.325257301,10.40886402,17.52822685,0.901788056,19.63838005,0.024169922,0.418212891,-0.6953125, 
454,1214565297,0.983862817,0.103010371,-0.136805102,0.051849119,4.49517107,2.388826132,9.80219841,11.50885296,1.512431741,19.3975544,0.004150391,0.40234375,-0.703125, 
455,1214573630,0.983787239,0.103136033,-0.136733338,0.053207211,2.32289052,1.328120589,8.990929604,3.791867971,3.263010979,17.89317322,-0.000732422,0.383056641,-0.698974609, 
456,1214581963,0.983662724,0.10322804,-0.137117177,0.054331794,2.894714355,1.864124537,9.458184242,2.881128073,-3.762346983,15.4812851,-0.026855469,0.365966797,-0.700195313, 
457,1214590296,0.983591318,0.102749273,-0.137676165,0.055112693,4.205681801,2.246031046,9.90666008,-5.936355114,-5.624450684,12.12046528,-0.038330078,0.345947266,-0.680175781, 
458,1214598629,0.983599782,0.101703182,-0.138263583,0.055431142,3.106072426,1.950469017,9.596932411,-14.37801838,-6.551303387,6.915960789,-0.068847656,0.332275391,-0.670410156, 
459,1214606962,0.983589053,0.100561716,-0.139310092,0.055083249,2.112759352,1.765320182,9.560547829,-17.50323868,-13.18567562,-1.271696091,-0.077880859,0.317626953,-0.646240234, 
460,1214615295,0.98354423,0.099365719,-0.1409228,0.053941324,-0.027648365,1.954394221,9.589964867,-19.89824486,-22.43579674,-11.08499336,-0.108398438,0.304443359,-0.630371094, 
461,1214623628,0.983333588,0.098218516,-0.143950462,0.051844437,0.038516492,2.290010452,9.947006226,-22.15610886,-42.77013779,-22.03692627,-0.120117188,0.294189453,-0.602050781, 
462,1214631961,0.982753277,0.097425506,-0.149491623,0.048558492,-2.70230937,1.234502912,11.22087002,-20.76914215,-79.81544495,-35.1618309,-0.147460938,0.284423828,-0.580566406, 
463,1214640294,0.981167734,0.099280931,-0.159975573,0.043153286,3.889739513,-0.294090271,7.861527443,8.463543892,-152.8567657,-61.94034958,-0.162841797,0.269042969,-0.544189453, 
464,1214648627,0.978145301,0.101239741,-0.17823647,0.034861419,-7.681613922,-4.83934021,20.2537632,1.104370117,-265.3998718,-89.66437531,-0.197265625,0.251220703,-0.522705078, 
465,1214656960,0.968501151,0.117861181,-0.217180878,0.030788973,-20.09177017,-8.004441261,16.85383987,207.7982025,-560.7531738,-36.85333252,-0.239990234,0.227294922,-0.479492188, 
466,1214665293,0.95398432,0.136824727,-0.265220046,0.029194698,0.018194258,10.10764408,12.53651905,250.7379761,-693.9682007,5.943984032,-0.311279297,0.190673828,-0.447998047, 
467,1214673626,0.935466588,0.148346856,-0.319539964,0.028128706,-2.2075634,12.00004768,14.50363636,159.8695984,-786.8623047,53.51124954,-0.372802734,0.165527344,-0.388427734, 
468,1214681959,0.911583781,0.154002488,-0.380432665,0.023892032,-5.055718899,6.733750343,16.74139977,78.98820496,-899.6168213,53.94966125,-0.455810547,0.157226563,-0.324462891, 
469,1214690292,0.882234335,0.150003091,-0.445976585,0.016370207,-2.749582291,8.8195467,18.32990456,-49.45291901,-990.3630981,75.09085846,-0.521972656,0.160888672,-0.223144531, 
470,1214698625,0.850571811,0.135456666,-0.508103073,0.003429029,4.557425976,8.427976608,23.01911163,-205.0706787,-972.0391235,67.35305023,-0.596923828,0.178955078,-0.118408203, 
471,1214706958,0.830391824,0.117106572,-0.544570625,-0.013409429,24.29272652,1.679672718,34.66080475,-297.0050659,-598.1322632,0.194501251,-0.630859375,0.200195313,-0.013427734, 
472,1214715291,0.818273842,0.108324967,-0.564106703,-0.021877607,8.429017067,-16.75431061,33.34977722,-140.9666901,-328.9910583,-1.905581236,-0.661621094,0.213378906,0.034667969, 
473,1214723624,0.808375895,0.114682466,-0.576968014,-0.022035768,5.511265278,-23.47305298,24.99772835,88.51854706,-219.8691406,-34.86670685,-0.668457031,0.219482422,0.052734375, 
474,1214731957,0.799304843,0.126950741,-0.587182522,-0.014606535,3.834788561,-9.905153275,18.82143211,212.3643494,-169.962326,-1.587801814,-0.695068359,0.219238281,0.044921875, 
475,1214740290,0.791745901,0.134589568,-0.595806897,-0.006294606,2.978352785,0.989625156,13.7903738,165.6997833,-140.0478363,43.09553909,-0.692138672,0.228271484,0.030273438, 
476,1214748623,0.785976231,0.136170447,-0.603075683,-0.000610233,2.737509489,4.092991352,11.69536591,74.7208252,-115.6203537,61.69620514,-0.712646484,0.240722656,0.014404297, 
477,1214756956,0.782461286,0.13394171,-0.608116746,0.003082909,3.580304146,2.041032553,10.87609863,12.87366867,-77.13079071,67.64922333,-0.708496094,0.261962891,0.005371094, 
478,1214765289,0.781288266,0.131198734,-0.610187948,0.006918552,3.970957994,-0.609183788,9.416135788,4.259833336,-24.77760696,67.87878418,-0.716796875,0.284912109,-0.015380859, 
479,1214773622,0.782414973,0.130030602,-0.608912587,0.012081856,3.986137152,-0.395935982,8.840771675,28.58185005,32.10559082,62.72849274,-0.700683594,0.309570313,-0.043457031, 
480,1214781955,0.785306096,0.130735546,-0.604874671,0.018186167,2.108750105,2.014194489,10.03217506,53.82706451,78.58942413,51.88075256,-0.706787109,0.329589844,-0.076416016, 
481,1214790288,0.789208114,0.132750556,-0.5991202,0.024173487,0.390008926,5.626320839,12.40059948,65.71723938,104.3159256,36.43922806,-0.685791016,0.351318359,-0.110839844, 
482,1214798621,0.794381678,0.135138005,-0.591482162,0.029087627,0.084241502,8.810184479,12.42796421,59.11897659,133.8341827,17.8039608,-0.686523438,0.368652344,-0.155517578, 
483,1214806954,0.800727546,0.137045354,-0.582274318,0.031812839,-1.025962472,9.768677711,9.619311333,34.61291885,155.8677521,-5.487536907,-0.662353516,0.385009766,-0.195800781, 
484,1214815287,0.807329357,0.138136208,-0.572819233,0.031892166,-0.690125763,8.79447937,8.303445816,3.967925787,156.7858887,-28.76397324,-0.666259766,0.406494141,-0.241699219, 
485,1214823620,0.814406037,0.138723299,-0.562656939,0.030289581,0.654379129,6.786441803,7.372061253,-15.38515472,164.5341797,-44.83252716,-0.645263672,0.424316406,-0.280029297, 
486,1214831953,0.821811199,0.139527068,-0.551718116,0.027702708,1.328516483,5.157394886,6.538421631,-20.95935631,174.6749115,-59.33892059,-0.654785156,0.443359375,-0.318115234, 
487,1214840286,0.829526842,0.140384287,-0.539981306,0.024471907,2.508384228,4.424689293,6.827252865,-25.45627975,183.8635101,-68.4213562,-0.630371094,0.461425781,-0.366455078, 
488,1214848619,0.837741256,0.140593469,-0.527256548,0.02061465,3.624767065,4.250780106,7.646763325,-38.20738983,198.7782288,-73.08118439,-0.636230469,0.479736328,-0.418701172, 
489,1214856952,0.846299469,0.139800876,-0.513785839,0.016072068,3.814964294,3.760668039,8.080571175,-55.09703827,207.8460541,-74.9732666,-0.603271484,0.49609375,-0.468994141, 
490,1214865285,0.854739368,0.138235644,-0.500184357,0.011342073,4.231062412,2.597930431,7.024157047,-65.23165131,209.3223419,-72.20075226,-0.590576172,0.521728516,-0.530517578, 
491,1214873618,0.863039255,0.136124179,-0.486405939,0.006653987,5.098581791,1.230816126,5.994046688,-70.99658966,209.5725861,-67.98005676,-0.536865234,0.547607422,-0.583496094, 
492,1214881951,0.871274114,0.133511096,-0.472284704,0.002266703,6.138364792,0.405184537,5.710641384,-74.85801697,214.8451843,-61.97521973,-0.5,0.574462891,-0.639404297, 
493,1214890284,0.879567802,0.130523905,-0.457517892,-0.001682677,6.467060089,-0.115582153,6.253296375,-76.51155853,222.7188416,-55.21689224,-0.420166016,0.603759766,-0.669921875, 
494,1214898617,0.887655556,0.127547815,-0.442465723,-0.004994305,6.909990311,-0.181254148,7.638572693,-72.07471466,227.0821228,-48.35938263,-0.369384766,0.636230469,-0.704345703, 
495,1214906950,0.89573127,0.124614827,-0.426709175,-0.007575442,7.86330986,0.03197483,9.007220268,-67.04941559,235.815155,-40.70253754,-0.284667969,0.661132813,-0.713623047, 
496,1214915283,0.903922975,0.121765226,-0.409887284,-0.009514265,8.283186913,0.269043922,8.961589813,-62.64487839,251.8061218,-35.33105087,-0.229248047,0.685791016,-0.731445313, 
497,1214923616,0.912080467,0.118944824,-0.392221779,-0.011175279,8.154746056,0.465728432,8.968202591,-60.6606369,261.4809265,-33.24291229,-0.141601563,0.704589844,-0.737792969, 
498,1214931949,0.919996142,0.115935773,-0.374183238,-0.012427649,8.791604996,0.658347964,9.782074928,-60.59383774,266.5864868,-27.96274567,-0.092285156,0.720947266,-0.740478516, 
499,1214940282,0.927779615,0.112849355,-0.355409265,-0.013252954,9.10789299,-0.001903724,10.32531929,-59.16529083,274.7783203,-23.16001511,-0.009765625,0.733642578,-0.737060547, 
500,1214948615,0.93520093,0.109721482,-0.336424887,-0.013422986,9.345080376,-0.788650095,10.31134796,-56.09293365,277.8032227,-15.18704033,0.044921875,0.743164063,-0.743652344, 
501,1214956948,0.942239761,0.106468067,-0.317305714,-0.012942111,9.839411736,-1.374269843,10.89276028,-54.02774048,277.6169434,-6.355211258,0.128417969,0.747314453,-0.727050781, 
502,1214965281,0.948932767,0.102886185,-0.298001111,-0.011744469,10.75981522,-1.629402399,12.17398453,-54.79880905,280.611969,3.879926682,0.183837891,0.748291016,-0.731933594, 
503,1214973614,0.95542258,0.098992564,-0.277984053,-0.009724969,11.17074966,-1.580171943,12.77573013,-55.17797089,289.0960388,14.98735809,0.266601563,0.747802734,-0.708984375, 
504,1214981947,0.961533129,0.095058031,-0.25762859,-0.006853316,11.02843952,-0.852406025,12.56906509,-52.1350441,294.3426514,25.68426323,0.325927734,0.746337891,-0.7109375, 
505,1214990280,0.967185438,0.091342367,-0.237062424,-0.00341703,10.92474842,0.528220117,12.42730999,-46.50167847,295.1879883,32.16452026,0.419189453,0.736572266,-0.677246094, 
506,1214998613,0.972303212,0.087840907,-0.216591373,0.000309354,10.74014664,2.12308979,12.13006973,-42.19036484,293.6285706,35.31100845,0.488769531,0.741455078,-0.659667969, 
507,1215006946,0.976918161,0.084437519,-0.196180284,0.004004978,10.77495766,3.226140022,11.72276592,-40.2019577,290.2469177,34.76262665,0.577148438,0.732177734,-0.608398438, 
508,1215015279,0.981002271,0.081022061,-0.176110759,0.007509105,10.66578865,3.790110588,12.12046051,-40.44427872,285.0481262,32.56705475,0.639648438,0.735351563,-0.568115234, 
509,1215023612,0.984544396,0.077491,-0.156693339,0.010766068,10.66752148,4.613179207,13.0975256,-41.92758179,273.6708374,30.36220551,0.713867188,0.725585938,-0.505615234, 
510,1215031945,0.987602949,0.073975861,-0.137756705,0.013871189,11.25572395,5.66652298,13.58425045,-41.73279572,266.9558411,28.78885841,0.75390625,0.726074219,-0.452392578, 
511,1215040278,0.990262508,0.070653461,-0.118785813,0.016723722,11.39977455,6.510667801,12.73005867,-39.0662117,265.4276428,25.12208939,0.806640625,0.713134766,-0.365966797, 
512,1215048611,0.992486298,0.067579761,-0.100204282,0.019087231,11.10277748,7.347858429,11.79238129,-36.25944519,259.8241577,18.4470768,0.826660156,0.714599609,-0.30078125, 
513,1215056944,0.994291246,0.064780824,-0.082233064,0.02067798,10.97564888,8.298294067,12.22500706,-33.2776413,249.2490082,8.275665283,0.848876953,0.699462891,-0.222900391, 
514,1215065277,0.9957183,0.06220109,-0.064982079,0.021328356,11.07276154,8.919207573,13.51713181,-31.27862549,238.9480286,-4.159221172,0.845947266,0.699707031,-0.167724609, 
515,1215073610,0.99685204,0.059613712,-0.047889549,0.020978266,11.26669121,9.375123024,14.75999355,-32.06659317,234.8681335,-17.55005455,0.853515625,0.682373047,-0.093261719, 
516,1215081943,0.997677445,0.057368219,-0.030914359,0.019861119,11.83321476,10.36379051,13.18983364,-27.67224121,233.1228333,-28.18516731,0.832275391,0.684814453,-0.050048828, 
517,1215090276,0.99820286,0.0555421,-0.014525675,0.017221907,11.81687069,12.08065319,9.826197624,-22.54743385,222.9258423,-48.63620377,0.822509766,0.666992188,0.009765625, 
518,1215098609,0.998491585,0.053451743,0.00050043,0.012608429,12.70083427,12.85389233,5.736666679,-26.65260315,203.4331055,-74.6534729,0.798828125,0.674316406,0.041748047, 
519,1215106942,0.998617887,0.050291736,0.013903974,0.006418251,14.63867092,10.2955761,2.498545408,-41.63118362,179.5765533,-95.03709412,0.775878906,0.658691406,0.093994141, 
520,1215115275,0.998616934,0.04632486,0.024882635,-0.000850188,17.33695602,6.227695465,0.569923043,-52.49119186,146.2288208,-108.3641815,0.748779297,0.675048828,0.117675781, 
521,1215123608,0.99852109,0.041814063,0.033714034,-0.008496992,21.98078918,2.607378006,-1.467329144,-59.97410202,116.0389328,-112.3525085,0.721923828,0.661376953,0.160888672, 
522,1215131941,0.998359978,0.036802355,0.041157689,-0.0151821,26.29188347,-1.082877994,-5.337799549,-66.86933136,97.99415588,-98.6138916,0.701171875,0.682861328,0.174316406, 
523,1215140274,0.998187006,0.032246966,0.046766847,-0.019923877,27.78353882,-4.50041914,-9.968133926,-61.57672501,73.5825882,-70.74423981,0.6875,0.670410156,0.205810547, 
524,1215148607,0.99807632,0.029750258,0.049359776,-0.022879887,27.44970322,-5.538136959,-10.01477528,-33.40652084,33.80472946,-43.55706787,0.677490234,0.690429688,0.201416016, 
525,1215156940,0.998067319,0.029701252,0.049243603,-0.023576934,26.660532,-3.721502781,-7.230763435,-0.77247417,-1.820992947,-9.763429642,0.674072266,0.677734375,0.217529297, 
526,1215165273,0.998131096,0.031692058,0.047154978,-0.022531908,23.67638397,-1.400302172,-4.970776558,26.89282036,-27.50070953,16.37122154,0.685058594,0.697998047,0.199951172, 
527,1215173606,0.998257101,0.034326419,0.04347657,-0.020379486,19.39105606,0.636388242,-2.525702238,35.27249908,-48.50786972,32.67919922,0.700195313,0.684326172,0.200927734, 
528,1215181939,0.998440146,0.03674886,0.038350601,-0.017244833,17.18654823,1.83250773,0.17393893,32.35567093,-68.18238831,46.75632477,0.709716797,0.698486328,0.174316406, 
529,1215190272,0.998630166,0.038782928,0.032499775,-0.013373789,16.39656258,1.269445419,3.974742413,26.60984993,-77.4887085,57.00071335,0.720703125,0.67578125,0.171875, 
530,1215198605,0.998757243,0.041039649,0.026662687,-0.00951251,11.88896847,-0.435549974,6.808733463,29.8972435,-77.60620117,56.97634506,0.724853516,0.689453125,0.14453125, 
531,1215206938,0.998802781,0.043185726,0.021815721,-0.007321081,-2.199526072,-2.294364929,5.531426907,28.70711517,-64.40830994,33.39244461,0.740966797,0.676269531,0.141357422, 
532,1215215271,0.99882865,0.044124484,0.019432647,-0.00425452,-30.20137024,-3.651395321,15.75921535,11.82390785,-30.68667793,43.62514114,0.752929688,0.692626953,0.116210938, 
533,1215223604,0.998784244,0.048850089,0.006667733,0.000722818,-22.3002758,7.793402195,46.22091293,63.80739594,-171.3200378,77.13896179,0.772216797,0.680664063,0.103271484, 
534,1215231937,0.998274386,0.058380749,0.004049154,0.004995435,5.712544441,-1.754450679,20.95693207,130.4545288,-33.00811386,61.12861633,0.783203125,0.688720703,0.060058594, 
535,1215240270,0.99777627,0.065384366,0.001898604,0.012843776,13.74657726,-12.21752548,-4.080602169,95.42809296,-23.1988678,109.6689072,0.804443359,0.674072266,0.051757813, 
536,1215248603,0.997257888,0.070951551,-0.002563021,0.020912902,21.19875336,-8.852039337,-2.55114603,75.48167419,-54.79807663,114.7721634,0.826904297,0.679199219,0.013183594, 
537,1215256936,0.996628106,0.075818852,-0.010031371,0.029746208,15.51122379,2.771250725,9.574427605,65.08293915,-94.65995789,128.1938477,0.864746094,0.672119141,-0.011474609, 
538,1215265269,0.995861769,0.079524674,-0.018518895,0.039922263,0.860501468,10.47542858,16.21518135,49.14664459,-107.2020493,147.9256592,0.897216797,0.674804688,-0.064697266, 
539,1215273602,0.994951785,0.083301544,-0.026329143,0.049397044,-6.395224094,16.30979347,17.38419724,50.45626831,-98.17414856,137.5603333,0.938720703,0.665039063,-0.093261719, 
540,1215281935,0.993849754,0.089210093,-0.033363063,0.056504481,-6.349658489,15.97455025,7.275047779,79.52583313,-92.37623596,103.7187958,0.962646484,0.665283203,-0.140869141, 
541,1215290268,0.992703199,0.095532827,-0.041603979,0.06069991,-4.211228848,17.24104118,2.657766581,82.87030792,-112.2245483,65.1738205,0.980957031,0.645263672,-0.163085938, 
542,1215298601,0.991785765,0.098643713,-0.051249579,0.063287303,1.251906157,15.7218399,11.71009159,36.72857285,-131.2623138,46.78306198,0.977539063,0.646972656,-0.201171875, 
543,1215306934,0.990807712,0.10176082,-0.061246563,0.064769015,0.232086092,5.619623661,13.8304081,35.57454681,-137.0930786,32.17744064,0.988769531,0.631103516,-0.228759766, 
544,1215315267,0.989808857,0.104808539,-0.070802018,0.065437317,3.208317041,-1.535678983,11.56125546,34.60202408,-132.6794434,20.60596275,0.974853516,0.634033203,-0.278808594, 
545,1215323600,0.988762796,0.106551409,-0.079963222,0.067840301,4.38113451,-7.799908161,11.89714909,18.64807892,-123.1807175,44.93088531,0.977294922,0.621826172,-0.322509766, 
546,1215331933,0.986839652,0.114123404,-0.089250199,0.071826965,1.219972372,-8.342870712,12.54112339,101.1223145,-129.4807129,61.08911133,0.977539063,0.616210938,-0.377929688, 
547,1215340266,0.98408711,0.126524329,-0.099447556,0.075337619,1.608494878,2.594193697,11.81113815,166.2432251,-147.8514709,50.89585876,0.98046875,0.591552734,-0.435302734, 
548,1215348599,0.98115319,0.136977673,-0.110808879,0.079363018,3.2137146,9.140122414,12.97613811,139.9321594,-161.4576569,62.79445267,0.960449219,0.570800781,-0.505126953, 
549,1215356932,0.979025126,0.143930063,-0.118113548,0.082732469,9.677778244,7.005029678,17.47167397,94.4260025,-102.3987732,50.68283081,0.962158203,0.546875,-0.550292969, 
550,1215365265,0.977508008,0.150549456,-0.120932348,0.084792815,5.30061388,1.917481065,13.60475636,91.88721466,-43.73070145,24.09783363,0.937255859,0.534912109,-0.596435547, 
551,1215373598,0.976516187,0.155732051,-0.121533699,0.085991576,4.990904808,7.397125244,10.51141357,72.42896271,-12.62818527,9.619970322,0.942382813,0.514892578,-0.628173828, 
552,1215381931,0.976165414,0.156839922,-0.121656395,0.087768592,2.832263947,7.790750504,9.73694706,18.07870674,0.397161812,22.49442482,0.927978516,0.511962891,-0.657958984, 
553,1215390264,0.976039886,0.156609729,-0.121621139,0.089606307,3.861887693,3.721264601,9.271920204,-0.289210498,5.182466984,24.85065079,0.934570313,0.503417969,-0.674560547, 
554,1215398597,0.976022363,0.156563908,-0.12117596,0.09047614,3.635664225,3.28767848,9.907341003,1.051605344,8.011505127,10.6183691,0.916259766,0.503173828,-0.692871094, 
555,1215406930,0.976034164,0.156209379,-0.121056668,0.091119319,1.616454005,4.140697002,10.23580933,-4.171304703,4.127209187,8.676758766,0.914550781,0.502685547,-0.692626953, 
556,1215415263,0.976133108,0.154942736,-0.121297635,0.091898143,3.636623383,4.551729679,9.268094063,-16.59303856,0.327875197,12.76136398,0.888916016,0.503173828,-0.704589844, 
557,1215423596,0.976271093,0.153484836,-0.121553414,0.092538819,2.141572475,1.903254271,9.511136055,-19.72827339,0.6810956,11.13229656,0.880859375,0.504638672,-0.698974609, 
558,1215431929,0.976333618,0.152630195,-0.122051068,0.09263736,2.619344473,3.493858099,9.116396904,-12.44882965,-5.145030975,3.527350426,0.856689453,0.506835938,-0.71875, 
559,1215440262,0.97645396,0.15097031,-0.122778058,0.093127847,2.462260723,3.694097996,8.872558594,-23.25179482,-5.738924026,10.47777653,0.847412109,0.504150391,-0.722167969, 
560,1215448595,0.976569295,0.149330914,-0.123613283,0.093455665,2.218619108,2.535387993,9.031594276,-23.14252472,-8.102940559,8.56096077,0.824462891,0.509765625,-0.740478516, 
561,1215456928,0.976683438,0.147683069,-0.124488838,0.093718857,3.47621274,2.443883181,8.998744011,-23.65931702,-8.232136726,7.727011681,0.810546875,0.512695313,-0.730224609, 
562,1215465261,0.976807356,0.146287352,-0.12510784,0.093791664,3.149700642,1.717968225,8.713990211,-20.04463196,-6.019398689,4.268473625,0.789306641,0.519042969,-0.73828125, 
563,1215473594,0.976862431,0.145379171,-0.125833854,0.093659423,1.665260553,2.496387482,9.117616653,-14.08788204,-8.079242706,0.916387737,0.782958984,0.525634766,-0.725585938, 
564,1215481927,0.976970851,0.144075587,-0.126469299,0.093686342,3.288181782,3.181470156,9.557955742,-18.87423897,-6.479430199,3.552554607,0.761230469,0.528564453,-0.733154297, 
565,1215490260,0.977048218,0.142999277,-0.127180532,0.093566276,2.960520029,2.374191046,9.495545387,-16.34524155,-7.60179472,1.318915844,0.759033203,0.535644531,-0.717285156, 
566,1215498593,0.977153003,0.14174448,-0.127876207,0.093434155,3.531881094,3.40034771,9.33833313,-18.56543541,-7.673003674,1.457002282,0.738525391,0.544189453,-0.730712891, 
567,1215506926,0.977269709,0.140576795,-0.128385156,0.093278445,1.717840552,2.006743193,9.489089966,-17.4539299,-4.765606403,0.554151356,0.736816406,0.549316406,-0.708984375, 
568,1215515259,0.977310836,0.139575034,-0.129178584,0.093255296,3.522997618,2.827083826,8.647403717,-14.97428989,-9.214133263,2.743195534,0.723388672,0.5546875,-0.719970703, 
569,1215523592,0.977428734,0.138612732,-0.129437327,0.093095928,2.434485912,1.843097329,8.654309273,-14.38180542,-1.673967242,-0.331986129,0.726074219,0.558837891,-0.699951172, 
570,1215531925,0.977446079,0.137924984,-0.130036697,0.093100414,1.952477694,2.561046839,8.779383659,-10.41108704,-6.999116421,2.209983826,0.708007813,0.565429688,-0.721923828, 
571,1215540258,0.977476716,0.137009025,-0.130704448,0.093195289,4.204363346,2.68621707,8.401455879,-13.65904999,-6.899836063,3.897372961,0.708740234,0.565185547,-0.703857422, 
572,1215548591,0.977579534,0.136256903,-0.130826771,0.093047902,2.387570381,2.130424738,9.091622353,-11.1001606,-0.638460457,-0.725728214,0.697021484,0.571044922,-0.721923828, 
573,1215556924,0.977605879,0.135484666,-0.131351084,0.093161695,3.009039164,3.537386894,9.134859085,-11.50338078,-5.129686832,3.627014875,0.700927734,0.575683594,-0.709228516, 
574,1215565257,0.977711856,0.134441659,-0.131585062,0.093231156,3.330545902,1.958444238,9.020516396,-14.76822281,-1.352380514,2.922597408,0.685058594,0.580322266,-0.721435547, 
575,1215573590,0.977787912,0.133784741,-0.131802484,0.093070343,2.43716979,2.36725831,9.396375656,-10.15197277,-1.57525003,-0.909074903,0.688232422,0.582763672,-0.714355469, 
576,1215581923,0.977881849,0.132773429,-0.132158622,0.093026154,3.023636103,3.175567627,9.221420288,-14.6815958,-3.268479347,1.5790025,0.670654297,0.588378906,-0.731445313, 
577,1215590256,0.978004038,0.13158828,-0.132504568,0.092933543,2.809075356,2.076450825,8.802474976,-17.37792969,-2.420084476,1.147043943,0.673828125,0.590332031,-0.714355469, 
578,1215598589,0.97813791,0.130449891,-0.13279441,0.092716403,2.935286045,2.505411863,9.10264492,-16.6931324,-2.455918789,-0.687383711,0.659179688,0.593505859,-0.736572266, 
579,1215606922,0.978274584,0.129228368,-0.133111477,0.092529602,2.906853914,2.499660969,8.828377724,-18.02878952,-2.128313065,-0.119362377,0.664794922,0.599609375,-0.729736328, 
580,1215615255,0.978438079,0.127895564,-0.133327648,0.092341214,2.670932055,2.292348623,8.461941719,-19.21524239,-1.112401009,-0.112497754,0.649414063,0.600097656,-0.735839844, 
581,1215623588,0.978563845,0.126703039,-0.133720204,0.092084765,2.401576519,2.402695417,8.79209137,-17.84372711,-3.324908018,-0.961994052,0.646728516,0.602783203,-0.730957031, 
582,1215631921,0.978762746,0.125166193,-0.133925766,0.091773041,2.500114202,2.544728518,9.394058228,-22.23503304,-0.861458182,-1.457168698,0.635742188,0.606445313,-0.747070313, 
583,1215640254,0.978886008,0.123797715,-0.134459391,0.091533676,2.416025639,2.020712376,9.08979702,-20.35743141,-4.983225346,-0.165058181,0.634277344,0.606201172,-0.736328125, 
584,1215648587,0.979070306,0.122346997,-0.134742618,0.091096267,3.148877859,2.313948393,9.360604286,-21.38210297,-2.254616976,-3.149834871,0.618896484,0.608886719,-0.754638672, 
585,1215656920,0.979232192,0.120961376,-0.135107607,0.090663627,2.522970676,2.239994049,9.618400574,-20.79651451,-2.953322411,-3.065205336,0.619873047,0.609375,-0.755859375, 
586,1215665253,0.979393601,0.119546495,-0.135497108,0.090214394,3.060369968,2.093139648,8.934833527,-21.01661301,-3.792393446,-3.168891668,0.604736328,0.609130859,-0.773193359, 
587,1215673586,0.979521215,0.118274011,-0.136040211,0.089688703,2.526984453,1.761962175,8.71420002,-19.60982895,-5.712616444,-4.188210011,0.602783203,0.613525391,-0.776367188, 
588,1215681919,0.979616761,0.117159583,-0.136632323,0.089207157,2.979351282,2.057145119,8.806809425,-17.17222023,-7.06942749,-3.752383471,0.583984375,0.611572266,-0.793945313, 
589,1215690252,0.979738295,0.11600595,-0.137051597,0.08873409,2.782499313,2.013918161,8.694586754,-17.74964523,-4.120179176,-3.892904043,0.580322266,0.612060547,-0.803466797, 
590,1215698585,0.979802251,0.115036719,-0.137667462,0.088336289,2.720752239,1.848332524,8.989448547,-15.03581619,-7.492524624,-2.823406696,0.557617188,0.610595703,-0.821289063, 
591,1215706918,0.979905844,0.114033304,-0.138107747,0.087799013,3.261835337,2.149681807,9.288110733,-15.84445763,-4.721242905,-4.976565361,0.543701172,0.607666016,-0.829345703, 
592,1215715251,0.980077267,0.112957947,-0.13848199,0.08667966,1.814831376,4.321763515,9.529216766,-17.71148109,-5.039269924,-12.85632801,0.51953125,0.602050781,-0.851318359, 
593,1215723584,0.980261147,0.111009203,-0.139382616,0.08566682,2.591257572,0.044703424,9.841978073,-30.16322136,-10.39554596,-8.969037056,0.499023438,0.603515625,-0.856689453, 
594,1215731917,0.980365336,0.11067839,-0.139823273,0.084171936,2.716208935,0.542428911,9.150215149,-8.37719059,-7.496623516,-19.16204262,0.460205078,0.599365234,-0.874511719, 
595,1215740250,0.980525255,0.109499753,-0.140402868,0.082876094,3.031980515,4.019180298,9.302007675,-19.9076519,-7.481384754,-14.70647335,0.433105469,0.593994141,-0.881347656, 
596,1215748583,0.980691493,0.108555086,-0.14083083,0.081412822,2.424922228,-0.079595707,9.188454628,-16.67451477,-6.438858509,-17.64619255,0.384521484,0.586914063,-0.894042969, 
597,1215756916,0.980760813,0.108136654,-0.141404271,0.080130465,3.175836325,2.345316887,9.106050491,-9.490742683,-8.41917038,-15.90726185,0.351074219,0.582519531,-0.886962891, 
598,1215765249,0.980877936,0.107449062,-0.141713902,0.079067416,4.288605213,1.926988125,8.5542202,-12.22992897,-4.634051323,-12.8631382,0.303710938,0.573242188,-0.888183594, 
599,1215773582,0.980996728,0.106886551,-0.141815528,0.078169286,2.480927706,1.717002392,8.995067596,-10.23836899,-1.232531548,-11.20425797,0.275146484,0.568603516,-0.867919922, 
600,1215781915,0.981006205,0.106626377,-0.142211631,0.077684879,3.127105236,2.015185118,8.890321732,-5.267747402,-5.621864319,-5.650527,0.232910156,0.560058594,-0.857666016, 
601,1215790248,0.981070876,0.106123187,-0.142381787,0.077243187,4.020324707,2.146966934,8.84557724,-8.541399956,-1.651990175,-4.997107506,0.209960938,0.553710938,-0.830322266, 
602,1215798581,0.981096625,0.105709977,-0.142616495,0.077049293,2.414043188,1.751135468,9.3182621,-6.615542412,-2.824814796,-1.686415792,0.177246094,0.551025391,-0.812011719, 
603,1215806914,0.981084764,0.105442435,-0.142923236,0.076999389,3.501055956,2.315067053,9.255318642,-4.633615017,-3.322242975,0.100215696,0.1640625,0.541748047,-0.781494141, 
604,1215815247,0.981111884,0.105001457,-0.143044949,0.077030666,3.0065732,1.597130179,9.324705124,-6.429838657,-0.940196037,1.240766287,0.144287109,0.536865234,-0.767089844, 
605,1215823580,0.98110342,0.104698166,-0.143223986,0.077217646,2.956825972,1.891095757,9.116222382,-4.51809454,-1.215164781,3.182376385,0.145996094,0.530273438,-0.742431641, 
606,1215831913,0.981097341,0.104481846,-0.143263504,0.07751403,3.594079971,1.834933281,8.874992371,-2.741952896,0.247369468,4.292599678,0.135498047,0.518798828,-0.725830078, 
607,1215840246,0.981128931,0.104201928,-0.143109635,0.077775605,2.491885662,1.762364507,9.203655243,-3.754380941,3.43849349,3.628448725,0.141845703,0.512939453,-0.702880859, 
608,1215848579,0.981079638,0.104168698,-0.143217981,0.078240797,2.289807558,1.606217384,8.828097343,0.047066152,-0.720861435,6.355672836,0.132080078,0.504394531,-0.694580078, 
609,1215856912,0.981021583,0.104222067,-0.143320337,0.078708164,2.76809144,1.776230097,9.236421585,1.004859328,-0.258703798,6.211901188,0.140869141,0.491943359,-0.678955078, 
610,1215865245,0.980919838,0.104461916,-0.143521056,0.079291701,3.447057247,1.688679099,9.118711472,3.940865517,-2.195114374,7.602368832,0.131103516,0.483642578,-0.680175781, 
611,1215873578,0.980902731,0.10448204,-0.143350691,0.079781532,2.91121769,1.899217725,9.248573303,0.843387187,3.566026926,6.1463027,0.139404297,0.468994141,-0.678955078, 
612,1215881911,0.980747223,0.104923643,-0.143659323,0.080555208,2.463145971,1.590618134,9.137913704,6.992649078,-3.705611706,9.984494209,0.1328125,0.458496094,-0.677490234, 
613,1215890244,0.980683446,0.105159357,-0.143611178,0.081108287,3.627295494,2.070263863,9.310743332,3.813255787,1.680716872,6.800900936,0.138427734,0.443603516,-0.673583984, 
614,1215898577,0.980565846,0.105561554,-0.14372021,0.081811652,2.128803253,1.300699115,9.239660263,6.487049103,-0.997546494,8.785823822,0.127197266,0.429931641,-0.682861328, 
615,1215906910,0.980391979,0.10614191,-0.144044742,0.082572162,4.500204563,2.014120102,8.674880028,8.614668846,-3.649414063,9.5750494,0.128662109,0.416748047,-0.68359375, 
616,1215915243,0.980340958,0.10639827,-0.143856749,0.08317329,3.449255943,1.604439139,9.068713188,4.56114006,3.155712366,7.185266972,0.112060547,0.40234375,-0.693847656, 
617,1215923576,0.980180383,0.106875338,-0.144131541,0.083974063,2.665404081,1.515599012,8.631020546,7.339133263,-2.775866508,10.23938179,0.108886719,0.384033203,-0.687011719, 
618,1215931909,0.980011582,0.107336774,-0.144425511,0.084845543,3.708525419,1.421514273,7.721629143,7.481215477,-3.412150145,11.26438808,0.083740234,0.367431641,-0.692871094, 
619,1215940242,0.97985673,0.107682645,-0.144583642,0.085919723,2.419626236,0.722495675,8.543684959,6.24540472,-0.635361254,14.0021143,0.076171875,0.353027344,-0.685058594, 
620,1215948575,0.979601264,0.108376101,-0.144980296,0.087281115,1.698806643,2.905375242,10.25625706,11.58656502,-4.520709515,17.65967751,0.048828125,0.338134766,-0.690673828, 
621,1215956908,0.979323983,0.109031625,-0.145420685,0.088829815,4.192472935,2.844358206,10.09338665,11.21700382,-4.341589451,20.33890343,0.032470703,0.321044922,-0.669189453, 
622,1215965241,0.979105353,0.109399773,-0.145619705,0.090446271,3.175278187,1.411652565,8.910621643,7.901367188,-1.006844759,21.40383911,-0.000732422,0.303955078,-0.663818359, 
623,1215973574,0.978770733,0.110100731,-0.146236584,0.092204928,2.083966732,1.374981523,9.191580772,12.1068449,-6.583093166,23.41405106,-0.011230469,0.290283203,-0.645507813, 
624,1215981907,0.978357375,0.11101646,-0.147134706,0.094048753,3.620751858,2.516785145,10.46873665,15.14626026,-11.15260029,24.66520882,-0.039794922,0.277587891,-0.635742188, 
625,1215990240,0.977951527,0.111631945,-0.148141697,0.095939927,4.36137104,1.656926632,8.956752777,10.84408951,-11.66473198,26.05355453,-0.04296875,0.261230469,-0.605224609, 
626,1215998573,0.977572501,0.112145565,-0.149133295,0.09765286,2.654033422,1.372661591,8.74596405,9.296678543,-12.0191288,23.81611633,-0.058837891,0.249267578,-0.590820313, 
627,1216006906,0.977088153,0.11260464,-0.150879353,0.099275716,2.126654863,2.354962826,10.00013828,7.322719097,-21.96156311,24.00510979,-0.061523438,0.235595703,-0.558837891, 
628,1216015239,0.976597726,0.112473488,-0.1532024,0.100682326,4.362699986,1.728578568,9.892825127,-1.629323483,-29.7379055,23.24291229,-0.071533203,0.226074219,-0.541992188, 
629,1216023572,0.976177633,0.111765958,-0.155837551,0.101496518,1.811882377,1.596630692,9.808002472,-11.36003017,-33.4245224,16.87074852,-0.066650391,0.216552734,-0.507568359, 
630,1216031905,0.975671291,0.110747896,-0.159602076,0.101630479,0.967612684,2.545167446,10.30465221,-18.2291832,-49.85582352,10.27797985,-0.076660156,0.204345703,-0.497070313, 
631,1216040238,0.975070357,0.109256439,-0.164502934,0.101197898,1.220179081,2.910738945,9.954796791,-27.45981026,-65.04266357,5.575410843,-0.071533203,0.194824219,-0.466064453, 
632,1216048571,0.974126518,0.108154207,-0.171289772,0.100206569,1.89827621,1.576616526,9.612196922,-25.42284775,-92.9573288,0.515887678,-0.079101563,0.187255859,-0.455566406, 
633,1216056904,0.972394109,0.107865877,-0.181234851,0.099849962,0.801594138,1.110092759,11.51279163,-16.40030289,-136.8555603,12.89761257,-0.083984375,0.176025391,-0.427490234, 
634,1216065237,0.969029844,0.10740272,-0.198112279,0.100988485,-2.148472786,4.75412941,14.90088844,-21.91531944,-231.6172943,45.84031677,-0.1015625,0.166259766,-0.413574219, 
635,1216073570,0.961144388,0.1117777,-0.229362562,0.10536401,-9.906387329,2.901180029,16.00961685,37.91812515,-437.0452881,103.3434219,-0.117431641,0.156494141,-0.385009766, 
636,1216081903,0.94956708,0.119284458,-0.268339187,0.10995128,-1.045705557,3.312013388,12.8710041,74.65559387,-555.5283203,113.4781036,-0.166015625,0.148925781,-0.364013672, 
637,1216090236,0.93451196,0.12649776,-0.312046826,0.115385942,0.175413221,2.74645853,11.83392715,72.33841705,-628.0563354,138.7322235,-0.201660156,0.139648438,-0.326171875, 
638,1216098569,0.915595829,0.133869097,-0.359400034,0.120815761,0.768419147,1.176944494,10.72607517,75.45713806,-692.1293945,150.40802,-0.261230469,0.136474609,-0.292236328, 
639,1216106902,0.892285585,0.141007349,-0.410081089,0.125612095,0.735686958,2.878400564,10.80153751,71.81801605,-756.3569946,157.1395721,-0.299804688,0.135253906,-0.238037109, 
640,1216115235,0.864067614,0.145942777,-0.463849097,0.130128413,0.311051905,4.382514,11.22236156,47.52316284,-819.0180664,180.5036011,-0.358886719,0.138671875,-0.185546875, 
641,1216123568,0.82979089,0.146633089,-0.521813035,0.132884741,-0.879215717,6.847774029,13.65153694,-9.631887436,-903.4289551,206.1219482,-0.393554688,0.152832031,-0.111328125, 
642,1216131901,0.788391888,0.137209147,-0.585469484,0.129764721,0.044381499,14.54674053,20.47933769,-163.3025818,-1013.367432,236.0661469,-0.448730469,0.177734375,-0.022216797, 
643,1216140234,0.748436093,0.119876362,-0.643715262,0.105380408,10.08343601,23.23312378,35.05841064,-413.6233215,-968.9605103,56.45879745,-0.470458984,0.211425781,0.096191406, 
644,1216148567,0.728725851,0.097512312,-0.673900843,0.072863296,36.49887466,17.22497368,41.55189133,-529.8943481,-506.4492493,-58.60163879,-0.509521484,0.222412109,0.199462891, 
645,1216156900,0.73000282,0.085220136,-0.675989747,0.053597067,18.53408813,-17.44498253,39.16371918,-305.9126892,-22.67080116,-77.47036743,-0.517089844,0.23828125,0.247070313, 
646,1216165233,0.735947311,0.088430785,-0.669336379,0.050515927,3.155175686,-28.25131607,25.84974098,1.152057886,116.2104111,-73.15011597,-0.548828125,0.249755859,0.239501953, 
647,1216173566,0.735669732,0.102562077,-0.667117715,0.056800194,0.885752618,-10.71840382,13.59921074,202.3913574,17.32254601,-68.83930206,-0.562255859,0.257568359,0.217285156, 
648,1216181899,0.734484076,0.111290172,-0.666606784,0.061516993,4.170642376,2.092841625,12.3944149,133.2694855,-5.734711647,-32.34237289,-0.594238281,0.272949219,0.190673828, 
649,1216190232,0.735898912,0.112083606,-0.664829314,0.062396072,5.520376682,3.55209136,13.94931316,15.06926537,31.02018929,-2.328976631,-0.606689453,0.293212891,0.170898438, 
650,1216198565,0.740339816,0.108870238,-0.660506368,0.061457194,6.054204464,-0.654450178,13.93349266,-44.61283875,85.79358673,9.209687233,-0.637939453,0.317626953,0.145019531, 
651,1216206898,0.747736812,0.106080994,-0.652676284,0.060426649,5.527692318,-2.651529551,11.19688988,-42.57476044,147.0295715,-3.134478569,-0.643310547,0.340332031,0.108642578, 
652,1216215231,0.756804526,0.10380049,-0.642565727,0.059858255,5.348418236,-1.551855683,9.828564644,-33.75246048,186.5547028,-7.856211662,-0.665283203,0.370361328,0.059326172, 
653,1216223564,0.767563164,0.102067091,-0.62984705,0.061017632,5.929215431,-0.564234614,9.40060997,-13.0535984,229.7277832,0.339442879,-0.654541016,0.396240234,0.006835938, 
654,1216231897,0.779131353,0.10293135,-0.615047693,0.063852273,3.157401323,0.227733284,9.318546295,29.48229027,259.8104553,-8.239468575,-0.657470703,0.425048828,-0.053955078, 
655,1216240230,0.790861785,0.105346307,-0.599182844,0.066491932,2.090317488,4.680356979,10.32553959,45.18222046,269.9560852,-24.93645096,-0.629638672,0.449462891,-0.124023438, 
656,1216248563,0.802969098,0.107073963,-0.582408667,0.067655817,1.093494534,8.424647331,9.954350471,25.80473137,282.4524231,-37.14573288,-0.626220703,0.472900391,-0.190917969, 
657,1216256896,0.815256953,0.107490666,-0.56517607,0.066173978,0.941448092,9.481766701,8.491559982,-9.696224213,285.2006836,-56.5228157,-0.594482422,0.493896484,-0.237548828, 
658,1216265229,0.827154934,0.106873006,-0.54819411,0.062267512,1.344809532,8.124433517,6.773804665,-39.79638672,277.8013611,-75.12443542,-0.593994141,0.523925781,-0.294677734, 
659,1216273562,0.838602245,0.105925582,-0.53131479,0.056852359,2.715075731,5.696528912,5.072343826,-54.3521347,270.1402283,-89.01818085,-0.565185547,0.547607422,-0.346191406, 
660,1216281895,0.849485517,0.105084725,-0.514558256,0.050625701,3.80365324,3.082569599,3.469008446,-58.32260513,264.4965515,-98.78222656,-0.571289063,0.569335938,-0.405761719, 
661,1216290228,0.859733522,0.104168907,-0.498088956,0.043771449,4.815620899,1.945920944,2.987994432,-62.93249512,254.5881805,-104.4447861,-0.538574219,0.597167969,-0.466796875, 
662,1216298561,0.869245589,0.102388397,-0.482272148,0.03665591,5.618445873,0.746363282,4.267318726,-74.27282715,243.1805267,-100.5137253,-0.522460938,0.622802734,-0.540527344, 
663,1216306894,0.878555357,0.100051351,-0.46609053,0.029854562,7.465051651,-0.774181545,6.906281471,-78.37606812,245.7114716,-93.21083832,-0.458251953,0.653076172,-0.598632813, 
664,1216315227,0.887894928,0.097476259,-0.448967695,0.023882074,7.865920067,-2.111479998,7.96008873,-75.59142303,259.7245483,-83.24671173,-0.406494141,0.684814453,-0.658447266, 
665,1216323560,0.896912336,0.094768882,-0.431532025,0.018664422,7.862185001,-2.398321629,8.295795441,-72.01271057,261.3848267,-73.30493164,-0.305175781,0.715820313,-0.691162109, 
666,1216331893,0.905624568,0.091591381,-0.413820684,0.014449937,8.854032516,-2.390739679,9.077884674,-71.38861847,265.6275024,-58.6423378,-0.237792969,0.743408203,-0.707763672, 
667,1216340226,0.914480686,0.08817032,-0.394750178,0.011160906,10.09108829,-2.133385897,9.448685646,-69.02606201,283.3526001,-47.29483795,-0.141357422,0.770263672,-0.710693359, 
668,1216348559,0.923330545,0.084667452,-0.374451429,0.008912329,10.03874016,-2.43477273,8.553020477,-64.25063324,301.2805786,-35.42969131,-0.076416016,0.787353516,-0.716796875, 
669,1216356892,0.931857049,0.081507698,-0.353474885,0.007454405,9.602174759,-2.556890488,8.766633034,-55.29540634,307.86026,-27.77446747,0.018554688,0.800048828,-0.704589844, 
670,1216365225,0.939918041,0.078655556,-0.332147837,0.006804707,9.8093853,-1.787221432,9.805300713,-46.9339447,312.2046814,-19.39004517,0.082763672,0.808837891,-0.709960938, 
671,1216373558,0.947605371,0.075961411,-0.310204893,0.006934665,9.378131866,-1.006716371,10.1118927,-40.76273346,318.065033,-10.55817318,0.170410156,0.80859375,-0.691650391, 
672,1216381891,0.954822481,0.073462121,-0.287859261,0.007475268,9.389990807,0.013949649,11.08191681,-36.04772568,322.9414978,-6.52076149,0.233398438,0.807373047,-0.692382813, 
673,1216390224,0.961646914,0.071093485,-0.264788419,0.008322038,9.427638054,0.898669124,12.25525665,-32.52998352,329.9984436,-3.627737522,0.319580078,0.800537109,-0.665771484, 
674,1216398557,0.967898548,0.068909198,-0.241533026,0.00932809,8.919011116,1.768035889,12.74494457,-29.04945755,331.697937,-2.388888836,0.381103516,0.791748047,-0.665771484, 
675,1216406890,0.973517478,0.066853099,-0.218383208,0.010217691,8.873575211,2.927826166,13.48719215,-27.02158546,326.8692932,-4.115137577,0.469970703,0.779541016,-0.640136719, 
676,1216415223,0.978507757,0.064646907,-0.19552131,0.010774715,9.295941353,3.729644299,14.81963348,-29.61417007,322.033783,-7.832581997,0.538330078,0.778076172,-0.626220703, 
677,1216423556,0.982964873,0.062330969,-0.17254661,0.011143005,9.954375267,3.855845213,15.63420677,-30.99047852,320.7968445,-10.02187157,0.627929688,0.765136719,-0.575927734, 
678,1216431889,0.986870885,0.060229942,-0.149430409,0.011423325,10.46369362,4.024242878,14.7694664,-27.91771507,322.4642639,-11.83317947,0.689208984,0.767578125,-0.533691406, 
