PacketCounter,SampleTimeFine,Quat_W,Quat_X,Quat_Y,Quat_Z,Acc_X,Acc_Y,Acc_Z,Gyr_X,Gyr_Y,Gyr_Z,Mag_X,Mag_Y,Mag_Z
0,1210773782,0.504443705,0.278411865,-0.803207994,0.151263729,0,0,0,0,0,0,-0.985839844,0.360839844,0.009277344
1,1210782115,0.518359303,0.279839337,-0.792743325,0.156690449,8.655612946,-0.113316789,-6.500171661,37.74758148,243.9249573,-47.18151093,-0.995605469,0.363769531,-0.026855469
2,1210790448,0.532130361,0.281589419,-0.7817083,0.162718534,9.15715313,-0.24875237,-6.628217697,48.41547775,247.6658936,-48.26881409,-0.975585938,0.356445313,-0.071289063
3,1210798781,0.545658648,0.283757538,-0.770090997,0.169406965,9.565654755,-0.495011985,-6.841946125,60.79078674,251.3071136,-49.66936874,-0.983398438,0.35546875,-0.107910156
4,1210807114,0.558962703,0.286389172,-0.757832348,0.176726684,9.788088799,-0.084654361,-6.664453506,73.35028839,254.7788696,-51.78898621,-0.951171875,0.340820313,-0.149414063
5,1210815447,0.572061002,0.289296001,-0.745054007,0.184252143,9.78614521,0.713827968,-6.38973856,79.65671539,257.1236572,-54.65592957,-0.955566406,0.340820313,-0.185058594
6,1210823780,0.584887147,0.292108804,-0.732036889,0.191577062,9.818284035,1.323498011,-6.052116394,78.57878876,255.3239288,-55.49360275,-0.926757813,0.327148438,-0.227539063
7,1210832113,0.597359061,0.294683486,-0.718942761,0.198608592,10.00906467,1.79919982,-5.986093044,75.30647278,252.1547089,-54.86707687,-0.932128906,0.320800781,-0.267578125
8,1210840446,0.609565556,0.296880573,-0.705872416,0.205027804,10.28526402,2.254875183,-5.821724415,67.19016266,247.5813599,-55.29634094,-0.892089844,0.307128906,-0.299804688
9,1210848779,0.621544778,0.298450589,-0.693066299,0.210402235,10.75087833,2.54424715,-5.677662849,51.94523239,240.9648895,-56.2938118,-0.894042969,0.305175781,-0.331542969
10,1210857112,0.633432567,0.299323589,-0.680549324,0.214526728,11.471488,2.982059717,-5.683416367,33.64271164,234.2322083,-58.82329559,-0.857421875,0.292480469,-0.356445313
11,1210865445,0.645280063,0.299239844,-0.668489635,0.217235684,12.16020489,3.210822821,-5.507664204,10.84632587,227.1426086,-60.25933075,-0.860351563,0.293457031,-0.387695313
12,1210873778,0.657017827,0.298076123,-0.657002866,0.218691036,12.3941555,3.175281525,-5.707628727,-11.4947052,218.868927,-58.69294357,-0.823242188,0.280273438,-0.404785156
13,1210882111,0.668468416,0.295961589,-0.646147311,0.219204947,12.48446178,2.81547904,-6.025070667,-29.34057999,209.8175812,-55.23228073,-0.828613281,0.283691406,-0.429199219
14,1210890444,0.67973125,0.292887121,-0.635863781,0.218770087,12.32803726,2.419153214,-5.749121189,-47.53073883,201.7079773,-52.44046783,-0.792480469,0.27734375,-0.440429688
15,1210898777,0.690630853,0.288704664,-0.62639755,0.217498198,11.78258419,2.02435112,-5.192624569,-66.22803497,191.0690002,-46.28306198,-0.795898438,0.283203125,-0.457519531
16,1210907110,0.700573385,0.284235805,-0.617684305,0.216503128,10.90633202,1.613639235,-5.275846004,-64.99889374,177.4502106,-35.23637009,-0.761230469,0.279296875,-0.461425781
17,1210915443,0.709417105,0.279870242,-0.609718561,0.215971678,10.14858723,0.413182169,-4.703653336,-58.01276016,162.5950012,-25.55083466,-0.764648438,0.286621094,-0.477050781
18,1210923776,0.716997147,0.276283622,-0.602389276,0.216125697,9.572624207,-0.291859388,-4.625996113,-41.68418503,145.9770203,-19.09519196,-0.727539063,0.286132813,-0.478027344
19,1210932109,0.723198056,0.273583382,-0.595846474,0.217035115,8.935601234,-0.181206927,-4.505933285,-23.79223824,127.170105,-11.99955082,-0.734375,0.291992188,-0.493164063
20,1210940442,0.728037953,0.271543443,-0.590394497,0.218310595,8.442054749,0.105010554,-3.894350052,-12.35896301,104.4757614,-5.517000675,-0.706054688,0.28515625,-0.487792969
21,1210948775,0.731561899,0.269860476,-0.586328149,0.219572559,8.022764206,0.53895843,-3.637052059,-8.142887115,78.89720154,0.488171548,-0.717773438,0.29296875,-0.500488281
22,1210957108,0.733910918,0.268080741,-0.583920538,0.220328599,7.643537998,0.529616892,-3.621462107,-13.84842205,51.08839417,5.961100578,-0.689941406,0.289550781,-0.493652344
23,1210965441,0.735135138,0.266248107,-0.583145857,0.220521003,7.179716587,0.379583836,-4.010501385,-19.70394897,23.71904564,10.0456934,-0.70703125,0.297363281,-0.500488281
24,1210973774,0.735385716,0.264418632,-0.583836317,0.220059663,6.626202583,0.033245735,-4.633906841,-25.80285072,-1.329456687,11.80229282,-0.686523438,0.291992188,-0.494628906
25,1210982107,0.734720528,0.262862206,-0.585749149,0.219061062,6.33748579,-0.2682468,-5.170041084,-27.71494484,-23.79642296,11.32003403,-0.708496094,0.30078125,-0.501953125
26,1210990440,0.733279586,0.261582464,-0.588621676,0.217716828,6.541418552,-0.545497954,-5.599707603,-27.80193329,-41.81436157,11.47296047,-0.687011719,0.301269531,-0.491699219
27,1210998773,0.731149852,0.260614842,-0.592218995,0.216279447,6.917506695,-0.859734476,-6.210559368,-25.0887394,-55.97819901,12.60804653,-0.717773438,0.313964844,-0.498046875
28,1211007106,0.72834146,0.260197729,-0.596320391,0.214985088,7.399543762,-1.004189014,-6.751431942,-17.471138,-67.64432526,13.44949341,-0.700195313,0.308105469,-0.488769531
29,1211015439,0.724983811,0.260393441,-0.600706995,0.213881865,7.938891411,-0.93358916,-7.034254074,-8.628917694,-76.18696594,12.92138672,-0.729003906,0.316894531,-0.488769531
30,1211023772,0.721540749,0.260477096,-0.605313122,0.212431207,8.595703125,-0.679563046,-5.248551846,-12.97379017,-79.89167023,11.47011089,-0.716308594,0.316894531,-0.478027344
31,1211032105,0.719495595,0.257538408,-0.610440671,0.208237663,10.57761478,0.742464781,3.761311054,-72.30651093,-74.52931213,7.147246361,-0.75,0.326660156,-0.479980469
32,1211040438,0.718377769,0.252785027,-0.61567241,0.202438325,15.78510571,3.849023104,7.602570534,-107.3464203,-68.11219025,4.245017529,-0.738769531,0.333984375,-0.457519531
33,1211048771,0.714193344,0.253664017,-0.619645059,0.204017848,25.14891624,3.671830893,0.470731556,24.95544624,-71.82019043,33.57410049,-0.766601563,0.344238281,-0.459960938
34,1211057104,0.711029768,0.256794989,-0.620933175,0.207208976,26.20183372,-6.564031124,4.003942966,64.75910187,-37.32595062,18.02850723,-0.751464844,0.3359375,-0.451660156
35,1211065437,0.707490742,0.266737759,-0.618408144,0.214195758,17.25475502,-3.550760984,-0.824015796,175.9864044,-9.379628181,-15.46205139,-0.777832031,0.331542969,-0.466796875
36,1211073770,0.702345669,0.279617369,-0.614801288,0.224821597,8.65730381,0.09740036,-4.422622681,244.5766144,-7.685854912,-4.262331486,-0.76171875,0.305175781,-0.477050781
37,1211082103,0.696356654,0.291643918,-0.612165272,0.23512882,3.349889278,1.659067273,-1.482433558,233.9006195,-22.91586876,6.207874298,-0.787597656,0.287109375,-0.509277344
38,1211090436,0.690472186,0.301279604,-0.611214817,0.242684841,1.846703649,6.194303513,0.900925875,181.9550171,-41.32598877,6.385581017,-0.772460938,0.264648438,-0.520019531
39,1211098769,0.684445918,0.307403594,-0.613283992,0.246820152,4.249604702,9.714971542,-0.486736894,110.3810425,-73.79483032,16.43195534,-0.803710938,0.258300781,-0.537109375
40,1211107102,0.678498328,0.310425609,-0.617684245,0.248480663,8.676327705,7.144917011,-1.378573656,52.05014801,-94.85005951,28.87958717,-0.794433594,0.248535156,-0.525878906
41,1211115435,0.673637807,0.311510861,-0.622482657,0.248372659,10.98450184,1.850452065,-2.003807068,12.97370052,-90.41825104,26.82078934,-0.823242188,0.250488281,-0.521484375
42,1211123768,0.66923207,0.313058794,-0.626514912,0.248197854,11.18176651,-0.494143784,-3.349017859,17.33839989,-81.12973785,17.4532795,-0.813964844,0.248046875,-0.505859375
43,1211132101,0.664693952,0.315614074,-0.629688442,0.24912402,11.11199856,-1.1672858,-2.634365082,39.61421204,-73.23010254,15.61285782,-0.847167969,0.250488281,-0.506347656
44,1211140434,0.660042882,0.318597853,-0.632321358,0.251015455,11.23307419,-0.095298864,-1.875950217,54.21152115,-66.36183167,18.81020737,-0.835449219,0.245117188,-0.498535156
45,1211148767,0.655557632,0.320692271,-0.635095119,0.253091186,11.06811905,1.74653554,-1.607932806,46.54911423,-62.50315094,28.21845818,-0.870605469,0.245605469,-0.50390625
46,1211157100,0.651607871,0.321116835,-0.638449728,0.254309922,10.04508305,1.848855257,-1.277277589,19.60861969,-60.83119583,35.80080795,-0.856933594,0.241210938,-0.501464844
47,1211165433,0.648262739,0.320175648,-0.64228642,0.254384458,9.071444511,0.929688632,-0.883268178,-7.012825012,-60.31931305,37.52555084,-0.88671875,0.25,-0.500488281
48,1211173766,0.645202577,0.318756849,-0.646313787,0.253745198,8.898330688,0.513072193,-1.273846745,-19.51194191,-60.76416397,35.2583046,-0.874511719,0.25,-0.487304688
49,1211182099,0.642044067,0.317688793,-0.650196373,0.25317651,9.624599457,1.117310047,-2.129663229,-14.82194805,-61.47812271,32.44176483,-0.905761719,0.256835938,-0.486816406
50,1211190432,0.63909483,0.316422075,-0.654056132,0.252281249,10.27519512,1.777746558,-1.994997501,-20.34222031,-59.92778778,30.53940773,-0.895996094,0.258789063,-0.474609375
51,1211198765,0.63672787,0.314321101,-0.658025146,0.250565886,9.953472137,2.44707489,-1.60152185,-37.95050812,-56.53674698,29.25757408,-0.923339844,0.268066406,-0.474609375
52,1211207098,0.634611785,0.311618119,-0.662225723,0.24823305,9.025128365,2.900920868,-1.937090874,-50.70539093,-56.66744995,29.47371864,-0.914550781,0.268554688,-0.463378906
53,1211215431,0.632644057,0.308086425,-0.666912556,0.24509646,8.39835453,1.998372316,-1.661298752,-67.53996277,-60.39796448,31.54630089,-0.942871094,0.284667969,-0.454101563
54,1211223764,0.63059473,0.304234564,-0.67189604,0.241552651,8.559891701,0.882271826,-1.637502551,-74.72036743,-64.14368439,32.52752686,-0.93359375,0.288574219,-0.439941406
55,1211232097,0.628232896,0.300903291,-0.676694036,0.238466084,9.400074005,0.618561029,-1.634909511,-64.05132294,-65.46908569,31.88715553,-0.960449219,0.298828125,-0.424316406
56,1211240430,0.625496805,0.298376292,-0.681198299,0.235997558,10.609828,0.195473284,-1.868922234,-48.8424263,-66.25958252,29.82256317,-0.952636719,0.302734375,-0.407714844
57,1211248763,0.622517109,0.296524823,-0.685335279,0.234225601,11.7294426,-0.833379507,-1.747851014,-34.31153107,-64.95019531,28.70179367,-0.982421875,0.311523438,-0.393554688
58,1211257096,0.619549274,0.295389771,-0.688863277,0.233177379,11.81562996,-1.398696303,-2.061665773,-19.44727516,-58.74410248,25.69242096,-0.966796875,0.31640625,-0.381347656
59,1211265429,0.616648614,0.294984221,-0.691721678,0.232917547,10.95063305,-1.207626939,-2.090293884,-3.887483358,-51.77607346,22.49431992,-0.999023438,0.321777344,-0.370605469
60,1211273762,0.613967597,0.294688016,-0.694257557,0.23282972,9.982193947,-1.042444706,-2.207188606,-1.181715488,-46.3680954,20.95983124,-0.985351563,0.319824219,-0.362792969
61,1211282095,0.611374259,0.294432878,-0.696684539,0.232727155,9.300416946,-0.35546723,-2.473249435,-0.982487321,-45.04001236,19.66212845,-1.014648438,0.324707031,-0.350585938
62,1211290428,0.609083772,0.29372412,-0.699250758,0.231931105,9.109493256,0.377592921,-2.175886631,-13.11057091,-44.42126846,17.82059097,-1.004882813,0.32421875,-0.33984375
63,1211298761,0.607010484,0.292453825,-0.702133775,0.230256289,9.29963398,-0.109503292,-2.838077784,-28.15270996,-46.98803329,16.3970871,-1.025878906,0.332519531,-0.328125
64,1211307094,0.605091751,0.290900767,-0.70513314,0.228097185,9.953043938,-1.295651913,-2.959608793,-36.17827988,-47.27151489,15.11292458,-1.016113281,0.333496094,-0.315429688
65,1211315427,0.603631973,0.289193541,-0.707842231,0.225732371,10.71356297,-1.567985415,-2.792053699,-40.3826561,-40.99340439,12.24713898,-1.042480469,0.336914063,-0.298339844
66,1211323760,0.602251649,0.287981451,-0.710096896,0.223880142,10.9398737,-0.734009385,-3.262860775,-30.18569374,-35.69120026,9.670249939,-1.030761719,0.337890625,-0.285644531
67,1211332093,0.600985646,0.286797315,-0.712209404,0.222084254,10.90114594,-0.654890001,-3.085078955,-29.42158699,-33.51408386,8.908634186,-1.056152344,0.342285156,-0.271972656
68,1211340426,0.60001713,0.285698056,-0.714076817,0.220115066,10.55699539,-0.341447413,-3.22858429,-30.8410778,-29.25832176,4.802741051,-1.045898438,0.343261719,-0.26171875
69,1211348759,0.599166751,0.284836441,-0.715618193,0.218536824,9.942556381,0.49815917,-2.755371809,-24.51943779,-24.85190773,4.023681164,-1.067871094,0.346679688,-0.249023438
70,1211357092,0.598264694,0.284020275,-0.717153311,0.217032686,9.294521332,0.316588163,-2.910558462,-23.19507027,-24.88576508,4.345267296,-1.055664063,0.344726563,-0.239257813
71,1211365425,0.597351968,0.283389717,-0.718555331,0.215730324,9.02104187,-0.248267725,-2.890806437,-19.23766327,-23.93086052,3.658496618,-1.074707031,0.346191406,-0.224121094
72,1211373758,0.596300423,0.283114046,-0.719790041,0.214883685,8.930740356,-0.67791599,-2.537998438,-12.75602531,-22.99168587,4.078186035,-1.063476563,0.34375,-0.216308594
73,1211382091,0.595215857,0.283030063,-0.720916569,0.214223981,9.220992088,-0.788555682,-2.413901091,-6.912542343,-22.48528671,2.967320681,-1.083984375,0.344726563,-0.202636719
74,1211390424,0.593982816,0.283517897,-0.721761286,0.214156866,9.879065514,-0.179030806,-2.091081381,3.124310732,-20.80345535,1.908914328,-1.067382813,0.339355469,-0.196777344
75,1211398757,0.592708766,0.284008801,-0.722595394,0.214223608,10.39828396,0.039562572,-1.987864614,6.59437418,-20.83524323,2.631876707,-1.093261719,0.339355469,-0.182617188
76,1211407090,0.591362417,0.284532726,-0.723438144,0.214404613,10.54087925,-0.090391323,-1.862065554,6.566608429,-21.04053879,3.859029293,-1.083007813,0.33984375,-0.178710938
77,1211415423,0.5901739,0.284928769,-0.72421056,0.214545667,10.239254,0.298694074,-1.41286552,6.409797192,-18.9125309,3.687080383,-1.104492188,0.339355469,-0.166992188
78,1211423756,0.588907123,0.28557986,-0.724924982,0.214748099,9.699748039,0.84934181,-1.955120921,8.022471428,-19.4979229,2.003661394,-1.083496094,0.334472656,-0.160644531
79,1211432089,0.587716877,0.285743475,-0.725898623,0.214502111,9.252965927,0.509051263,-1.361672878,0.083566479,-21.39004707,3.671328306,-1.103027344,0.337890625,-0.151367188
80,1211440422,0.586617649,0.285682201,-0.726994514,0.213880628,8.85260582,0.288919181,-1.238858581,-7.304312706,-22.04105949,3.359168053,-1.090820313,0.33203125,-0.146484375
81,1211448755,0.585299492,0.285758168,-0.728181183,0.213353291,8.531523705,0.221841604,-1.601806879,-3.558971643,-25.23526001,3.480400085,-1.108398438,0.331542969,-0.128417969
82,1211457088,0.583814085,0.285605818,-0.729689598,0.212471485,8.767910004,-0.917626262,-1.076623201,-10.22787476,-29.98296928,4.919588566,-1.094238281,0.326660156,-0.118164063
83,1211465421,0.58219862,0.285908103,-0.730986953,0.212038517,9.142770767,-0.68680191,-0.715843201,0.04885919,-29.40067863,3.261680365,-1.116210938,0.331054688,-0.109863281
84,1211473754,0.580194831,0.286520362,-0.73236835,0.21193625,9.353098869,-0.749911964,-0.974659145,6.806285381,-33.32843018,4.352182865,-1.098144531,0.324707031,-0.104003906
85,1211482087,0.578110993,0.287172675,-0.733804405,0.211780339,9.777641296,-1.479158163,-0.927573979,7.072162151,-35.14899063,3.87265873,-1.114257813,0.33203125,-0.087890625
86,1211490420,0.575885534,0.288260162,-0.735032439,0.212107494,9.642585754,-0.797749281,-0.829680026,16.29066086,-34.04228592,2.994627953,-1.102539063,0.322265625,-0.08203125
87,1211498753,0.573439121,0.289531022,-0.736337125,0.2124791,9.501883507,-0.411054671,-0.832603097,19.12511635,-37.48531342,2.359395027,-1.1171875,0.321289063,-0.068847656
88,1211507086,0.570828319,0.290985465,-0.737692952,0.212819442,9.683781624,0.295712829,-0.83921361,20.94417,-39.97113419,0.890518725,-1.103027344,0.315429688,-0.0625
89,1211515419,0.568147361,0.292363554,-0.739172697,0.212970316,9.639891624,0.875173271,-1.06067121,18.15774727,-42.43328476,0.92740351,-1.118164063,0.317871094,-0.048339844
90,1211523752,0.565360606,0.29348731,-0.740926802,0.212745652,9.573014259,1.075405955,-1.333132505,12.25724411,-46.18333054,1.908174753,-1.108398438,0.314453125,-0.044921875
91,1211532085,0.56256032,0.294370532,-0.742898226,0.212072521,9.615978241,1.498991251,-1.556726217,4.955019951,-49.35151291,1.871802449,-1.120605469,0.314453125,-0.028320313
92,1211540418,0.559726536,0.294798374,-0.745205998,0.210875347,9.651812553,1.620607853,-1.698306203,-4.398974419,-52.86430359,3.824611902,-1.108398438,0.311035156,-0.024414063
93,1211548751,0.556821048,0.295017242,-0.747713566,0.209380031,9.671936989,1.232710004,-1.960000634,-9.719605446,-55.96207047,4.79198885,-1.123535156,0.312011719,-0.005859375
94,1211557084,0.55378443,0.295110822,-0.750394821,0.20770286,9.787968636,0.674756408,-2.336968899,-12.17771149,-58.80757523,5.682087421,-1.107910156,0.306640625,0.004882813
95,1211565417,0.550698519,0.295282006,-0.753060222,0.206011146,10.0085392,0.546858191,-2.470700741,-11.8303833,-59.68484879,4.93514967,-1.120605469,0.309082031,0.020507813
96,1211573750,0.547528565,0.295510471,-0.755710781,0.204420492,10.11410046,0.692491472,-2.554175377,-9.515897751,-59.99069977,5.160426617,-1.107421875,0.306640625,0.031738281
97,1211582083,0.544300199,0.29562968,-0.758443415,0.202742845,10.0550909,0.585924029,-2.703989744,-11.68727875,-61.46888351,6.2630229,-1.12109375,0.3046875,0.052246094
98,1211590416,0.54105413,0.295737565,-0.761150062,0.201124161,9.951620102,0.679736614,-2.700705051,-10.40010643,-60.98260117,6.578282356,-1.10546875,0.306152344,0.056640625
99,1211598749,0.537644327,0.295624107,-0.764057994,0.199401274,9.7307024,0.410379559,-2.752816916,-13.64232063,-64.20970154,9.581103325,-1.113769531,0.304199219,0.080078125
100,1211607082,0.534273088,0.294759095,-0.767202914,0.197660238,10.17710209,-2.053956032,-2.201911449,-19.55429459,-63.37179947,17.99334526,-1.100585938,0.302734375,0.087890625
101,1211615415,0.530093908,0.294847339,-0.770029008,0.197791025,9.929767609,-3.631846666,-3.84496665,10.69915009,-64.75641632,22.80059433,-1.112792969,0.305175781,0.107910156
102,1211623748,0.526349127,0.295450628,-0.772499561,0.197256893,10.48381805,-2.190892458,-3.182253838,7.286364555,-61.47490692,9.636734962,-1.097167969,0.30078125,0.114257813
103,1211632081,0.523609757,0.29547146,-0.774867415,0.195218503,10.25117874,2.315647364,-2.710558414,-17.38481712,-54.76713943,2.031253576,-1.105957031,0.299316406,0.131347656
104,1211640414,0.520665884,0.294899791,-0.777839422,0.192113131,9.154241562,3.45879364,-3.406707287,-33.1791954,-63.86073303,3.406517029,-1.088867188,0.297363281,0.133300781
105,1211648747,0.516901672,0.294796497,-0.780979633,0.189681664,9.545886993,2.360495567,-3.083483458,-20.3669796,-72.52463531,6.32998848,-1.099121094,0.295410156,0.157714844
106,1211657080,0.512958586,0.294968128,-0.784063578,0.187383071,10.01788998,0.637820184,-3.533931255,-15.59340954,-74.05075073,4.35783577,-1.084960938,0.294433594,0.165527344
107,1211665413,0.508997917,0.295880914,-0.786675453,0.185790703,10.26363564,1.135355115,-3.279303312,-1.983037233,-70.12909698,-0.320281804,-1.091796875,0.293945313,0.187011719
108,1211673746,0.504831314,0.29703337,-0.789264917,0.18433024,9.987999916,1.315813184,-3.587586164,2.030462742,-72.11374664,-1.524668932,-1.077148438,0.287109375,0.193359375
109,1211682079,0.500512123,0.298229516,-0.791900754,0.182866856,10.12597847,1.447472572,-2.943997622,2.794103622,-74.37760162,-1.473312259,-1.084960938,0.288574219,0.212402344
110,1211690412,0.496004164,0.299415946,-0.794625998,0.181382462,10.22032928,1.390277624,-3.20903182,3.06449008,-76.95539856,-0.633801937,-1.073242188,0.282714844,0.221191406
111,1211698745,0.491260499,0.300509781,-0.797495246,0.179884657,10.3834219,0.563775778,-3.537563562,2.880810738,-80.49219513,1.43119061,-1.077636719,0.283691406,0.241210938
112,1211707078,0.486582845,0.301627904,-0.800287366,0.178320348,10.51710033,0.642509222,-3.255696774,2.256562471,-79.43978119,0.275649101,-1.063964844,0.278320313,0.247558594
113,1211715411,0.48183769,0.302793056,-0.803046107,0.176822335,10.39066887,1.01759088,-3.539471626,3.63917613,-79.94129181,0.186459884,-1.067871094,0.27734375,0.264648438
114,1211723744,0.477009237,0.303746104,-0.80597508,0.174943164,10.28859138,0.650057316,-3.331413746,-2.016979456,-82.93095398,0.959579051,-1.053710938,0.275878906,0.27734375
115,1211732077,0.472169846,0.304635912,-0.808920503,0.17291823,10.15820313,0.840117872,-3.002655745,-4.065106869,-83.74713135,0.755253077,-1.059570313,0.273925781,0.291992188
116,1211740410,0.46711871,0.305452228,-0.812018454,0.170662209,10.03518391,0.616157472,-3.304849863,-6.56156683,-87.76969147,1.262905717,-1.046875,0.26953125,0.301757813
117,1211748743,0.461966515,0.306171119,-0.815225959,0.168087348,10.20662022,0.412067682,-2.536798239,-10.60757446,-90.82976532,0.951178849,-1.046875,0.266601563,0.320800781
118,1211757076,0.456662804,0.306895465,-0.818500459,0.165322915,10.5638752,0.591591895,-2.123201609,-12.18524551,-93.66268921,0.371037871,-1.036132813,0.265136719,0.329589844
119,1211765409,0.45077154,0.30776602,-0.821931362,0.162832096,11.44226265,-0.104961634,-2.519692183,-6.09393692,-100.5387115,2.385308504,-1.035644531,0.263671875,0.349609375
120,1211773742,0.444509447,0.309014231,-0.825262249,0.160823599,12.40820885,-0.05627992,-2.492622137,3.527792215,-102.835289,1.568130732,-1.022949219,0.261230469,0.354492188
121,1211782075,0.43808943,0.310563803,-0.828405857,0.159285337,12.58599758,1.431322455,-1.247517705,11.75651646,-102.2297897,0.523905575,-1.025878906,0.259765625,0.375488281
122,1211790408,0.431148499,0.312095582,-0.83174479,0.157824099,12.51164055,2.286165953,-1.174119234,14.35783958,-108.9237289,3.214198112,-1.012695313,0.259277344,0.377441406
123,1211798741,0.423488528,0.313246995,-0.835537255,0.156243265,12.85548687,1.666884542,-1.352204919,12.80235004,-119.5734558,10.31456184,-1.014648438,0.259765625,0.401367188
124,1211807074,0.415404677,0.314210117,-0.839525759,0.154622078,13.73554039,2.323783398,-1.129543066,12.68979168,-125.3491058,14.05492115,-1.003417969,0.258789063,0.405273438
125,1211815407,0.406880051,0.314803272,-0.84379375,0.152840704,14.72587872,3.471352577,-0.047277652,9.994280815,-131.9464264,19.49718475,-1.003417969,0.265625,0.431152344
126,1211823740,0.397907615,0.314611077,-0.848586321,0.15030323,15.70310211,3.971079826,1.170785189,-2.282808304,-141.7431946,27.66020584,-0.987792969,0.267089844,0.436035156
127,1211832073,0.389137089,0.313526511,-0.853706658,0.146488458,16.22302437,4.724851608,3.038868427,-23.67734718,-144.819046,32.01729202,-0.984375,0.272460938,0.461914063
128,1211840406,0.380698472,0.311449289,-0.859158278,0.141122013,15.9360857,5.648854733,4.053508759,-49.23248672,-147.4974823,36.21133423,-0.971679688,0.274902344,0.474609375
129,1211848739,0.372320652,0.308209479,-0.865086615,0.134199947,15.1367445,5.345692158,3.2920506,-74.95606995,-153.5723877,43.64319992,-0.968261719,0.277832031,0.505371094
130,1211857072,0.3642281,0.303718507,-0.871424437,0.125350624,14.1502142,4.246495247,2.026218176,-106.1587219,-158.3390961,49.97089005,-0.952636719,0.279785156,0.520507813
131,1211865405,0.356220573,0.298389047,-0.877952158,0.115201771,12.73470306,3.132089138,-0.391245604,-126.7124176,-162.0509949,54.05465317,-0.946777344,0.278320313,0.556640625
132,1211873738,0.347700357,0.292614073,-0.88463819,0.104389817,11.32759094,1.081306696,-4.016757965,-134.9287567,-171.3231201,57.75659943,-0.929199219,0.280273438,0.576660156
133,1211882071,0.337876499,0.28697136,-0.891428053,0.094040632,10.58634949,-0.264353812,-7.905905724,-123.6891403,-185.7167053,60.54216385,-0.926757813,0.281738281,0.61328125
134,1211890404,0.328100532,0.28127414,-0.898014605,0.082494251,11.34664059,-0.877379596,-7.928501606,-139.117981,-189.2192688,55.70474243,-0.906738281,0.284179688,0.631835938
135,1211898737,0.319572926,0.275207847,-0.904046714,0.06952548,13.19856834,-2.203927279,-7.640282631,-161.9773865,-176.0062714,49.36195374,-0.894042969,0.280273438,0.673828125
136,1211907070,0.312508136,0.26872465,-0.909377337,0.056204937,14.39558506,-3.959529638,-8.029743195,-173.6199188,-156.1032715,49.91620255,-0.880371094,0.275390625,0.688964844
137,1211915403,0.306779891,0.263110995,-0.913637698,0.04387746,13.93157291,-5.28908062,-8.707975388,-161.0023193,-131.3544922,37.34946823,-0.872558594,0.270019531,0.72265625
138,1211923736,0.301429123,0.261025131,-0.916387558,0.035221942,11.49625397,-4.702758312,-8.302221298,-101.1219635,-109.6079178,3.952903748,-0.860839844,0.262695313,0.732421875
139,1211932069,0.295883387,0.262601674,-0.917877734,0.031529628,9.519986153,-3.405728817,-7.0519557,-21.39733124,-90.27288055,-27.1840992,-0.861328125,0.258300781,0.751464844
140,1211940402,0.290226609,0.265598744,-0.918806016,0.03196682,8.213751793,-2.380347013,-6.10626173,36.25285721,-75.70331573,-28.86032295,-0.858886719,0.259277344,0.74609375
141,1211948735,0.285227805,0.267364204,-0.919816613,0.033156604,6.945624828,-1.884504199,-6.046136379,39.30446243,-63.8145256,-11.71683025,-0.859375,0.266113281,0.752929688
142,1211957068,0.281148434,0.267803848,-0.92089206,0.034565814,5.876718998,-1.146729946,-6.613146782,33.51960754,-51.49521637,5.719230652,-0.856445313,0.272949219,0.741699219
143,1211965401,0.277622998,0.267406702,-0.92201519,0.03616124,5.439404488,-0.454220623,-5.65615654,30.52975655,-43.11348724,16.96295929,-0.861816406,0.279785156,0.748046875
144,1211973734,0.274872988,0.266792297,-0.922952533,0.037758142,6.324674129,-0.584531665,-4.907668114,26.99472618,-32.93940353,18.63491631,-0.856933594,0.290527344,0.732421875
145,1211982067,0.273531288,0.266503185,-0.923337817,0.040055435,7.726928711,-1.111714125,-4.580972672,32.19824219,-10.09611797,14.41641045,-0.861816406,0.295898438,0.737304688
146,1211990400,0.27400437,0.266976386,-0.922874391,0.044139933,8.011148453,-0.807915449,-4.824299812,51.60224533,21.77563286,7.331571102,-0.860351563,0.307128906,0.71484375
147,1211998733,0.27597788,0.268149674,-0.921673656,0.049497001,7.048586845,-0.118394278,-5.267478943,65.30336761,48.3348732,-0.356398582,-0.867675781,0.313964844,0.707519531
148,1212007066,0.279183537,0.269728422,-0.919921517,0.055206832,5.825824738,0.174193576,-5.269315243,67.16203308,66.55169678,-7.047709942,-0.875,0.32421875,0.6796875
149,1212015399,0.283623278,0.271346748,-0.917760789,0.060367882,4.885632992,0.162033886,-5.230389595,56.08779526,82.18501282,-12.08856678,-0.887695313,0.332519531,0.668457031
150,1212023732,0.289372772,0.272730619,-0.91525352,0.064753316,4.196131229,0.009215014,-5.60987854,40.80187225,96.83292389,-14.54767323,-0.892089844,0.333007813,0.636230469
151,1212032065,0.296046615,0.273829192,-0.91251111,0.068542987,3.839743376,-0.243286118,-5.964488029,28.89401627,107.9562531,-15.01891994,-0.916503906,0.341308594,0.625488281
152,1212040398,0.303641111,0.274681181,-0.909478545,0.072122268,3.848533392,-0.287321895,-5.783007622,22.07549667,119.5937424,-14.74989605,-0.917480469,0.342773438,0.591796875
153,1212048731,0.31215319,0.275216997,-0.906175435,0.075249344,4.175987244,-0.540147126,-5.527329922,11.88279247,131.3418121,-14.60938072,-0.937011719,0.350097656,0.579589844
154,1212057064,0.321625561,0.275631279,-0.902451575,0.078524321,4.38324213,-0.55012387,-5.858427525,10.02340984,145.2692719,-15.05171871,-0.939453125,0.348632813,0.544433594
155,1212065397,0.331815511,0.276103199,-0.898278594,0.082229048,4.312909603,-0.420463711,-5.781670094,13.35808563,158.2612305,-16.33817673,-0.963378906,0.352539063,0.526855469
156,1212073730,0.342770219,0.276639849,-0.893581092,0.086557359,4.180578232,-0.442449749,-5.92881155,19.06404305,171.8663025,-17.15502739,-0.963378906,0.353515625,0.48828125
157,1212082063,0.354297101,0.277282089,-0.888375103,0.091533117,4.017001152,-0.573440194,-6.037440777,25.92918015,184.161972,-18.0086174,-0.984375,0.352539063,0.467773438
158,1212090396,0.36645478,0.278086066,-0.882577658,0.097140193,3.880511045,-0.262556642,-6.114678383,32.78508759,196.4318085,-19.96397781,-0.983398438,0.351074219,0.422363281
159,1212098729,0.379154861,0.278999507,-0.876237333,0.103002064,3.92155242,0.036671497,-6.14089489,35.06494522,207.1011505,-22.80360985,-1.006835938,0.357910156,0.394042969
160,1212107062,0.392452896,0.279884815,-0.869353414,0.108951904,4.14739275,0.318164557,-6.164798737,34.47018433,217.0114288,-24.94152451,-1.000488281,0.3515625,0.346191406
161,1212115395,0.406220973,0.280647367,-0.861995697,0.114828549,4.442436695,0.521093249,-6.261302948,31.81646538,225.6003876,-26.39366722,-1.023925781,0.361328125,0.314941406
162,1212123728,0.420492798,0.281110317,-0.854205728,0.120397657,4.836233139,0.687304795,-6.259941101,25.25657463,232.7754211,-27.02210999,-1.016601563,0.357910156,0.266601563
163,1212132061,0.435165256,0.28110379,-0.84610188,0.125394776,5.309399605,0.872677386,-6.410107136,14.77213478,238.3612213,-26.69454384,-1.033203125,0.361816406,0.235839844
164,1212140394,0.450185537,0.280550957,-0.837708712,0.129879281,5.877585411,1.092328072,-6.418220997,4.718146801,242.6172791,-25.11425781,-1.023925781,0.353027344,0.186035156
165,1212148727,0.46556744,0.279474646,-0.828998387,0.13380231,6.5724473,1.226796031,-6.660109997,-5.845027447,247.999176,-24.43788147,-1.038085938,0.359863281,0.157226563
166,1212157060,0.481265724,0.277971178,-0.819927335,0.137240991,7.195774078,1.181954861,-6.694768906,-14.62574005,252.3757172,-24.62456703,-1.023925781,0.352539063,0.110351563
167,1212165393,0.497113138,0.276158363,-0.810489893,0.140433848,7.935156822,0.902896166,-6.683432579,-19.3520813,256.5927124,-24.45947647,-1.036621094,0.354980469,0.077636719
168,1212173726,0.513063073,0.274417579,-0.800465703,0.143931776,8.488857269,0.459158927,-6.952971935,-14.68249416,262.3158264,-25.58250618,-1.012207031,0.355957031,0.032226563
169,1212182059,0.528859854,0.273137718,-0.789810658,0.147994921,8.816061974,-0.153537303,-6.984445572,-3.414389372,266.7521057,-28.76620293,-1.028320313,0.356445313,-0.004882813
170,1212190392,0.544444025,0.272508591,-0.778456986,0.152725026,9.271051407,-0.81639576,-6.979792595,10.81799507,270.2724609,-33.15346909,-1.000976563,0.352539063,-0.047851563
171,1212198725,0.559681296,0.272544265,-0.766465366,0.158138067,9.85513401,-1.013622761,-7.046349049,25.71239471,272.9319458,-36.84095383,-1.005859375,0.353027344,-0.088378906
172,1212207058,0.574649096,0.273105592,-0.753868222,0.163936213,10.4037838,-0.836593151,-6.851222515,36.17855072,274.6426392,-41.0790329,-0.978027344,0.344238281,-0.133789063
173,1212215391,0.58925581,0.274157107,-0.74073714,0.170072421,10.73689175,-0.741463304,-6.885147095,46.08328247,275.6938782,-44.70235825,-0.978515625,0.345214844,-0.170410156
174,1212223724,0.603418767,0.275841445,-0.727004588,0.17681095,10.70165634,-0.728961766,-6.820548058,60.45865631,276.4538574,-47.47919846,-0.945800781,0.335449219,-0.208007813
175,1212232057,0.617001057,0.278137147,-0.712777019,0.184116334,10.3902092,-0.494254172,-6.620821476,74.57517242,275.805481,-49.37388611,-0.947753906,0.329101563,-0.248046875
176,1212240390,0.629983485,0.280823708,-0.69822377,0.191684365,10.24976921,-0.017579194,-6.481571674,83.61737061,272.3464966,-50.68370438,-0.909179688,0.316894531,-0.284667969
177,1212248723,0.642372727,0.283605307,-0.683600366,0.199039042,10.53244781,0.74283278,-6.546776772,84.83572388,266.5422668,-52.171978,-0.908691406,0.311523438,-0.323730469
178,1212257056,0.654337049,0.286032885,-0.669154108,0.205575421,11.34609985,1.603735924,-6.48744154,75.21810913,258.4350281,-54.1943512,-0.872070313,0.30078125,-0.356445313
179,1212265389,0.666088462,0.287559181,-0.655166388,0.210696906,12.48621559,2.561110497,-6.555918694,53.59646606,249.653656,-56.25170898,-0.869628906,0.294433594,-0.393066406
180,1212273722,0.677812099,0.287881553,-0.641706765,0.214261323,13.29801083,3.373399019,-7.172707081,27.14947128,241.6107941,-57.46583176,-0.829101563,0.283203125,-0.416992188
181,1212282055,0.689792693,0.286343485,-0.628979981,0.215819776,13.17046165,3.673336029,-6.925573349,-11.10252476,234.8699341,-57.63051224,-0.826660156,0.281738281,-0.446777344
182,1212290388,0.702136397,0.281949192,-0.617509127,0.214923039,12.39239788,3.585483789,-5.421496868,-64.56526184,224.6686859,-52.30990982,-0.78515625,0.275878906,-0.453125
183,1212298721,0.713840842,0.275782287,-0.60740906,0.213143483,11.09174538,3.3278234,-5.95382309,-90.7772522,208.0573883,-38.61384964,-0.78515625,0.28125,-0.473144531
184,1212307054,0.724684894,0.268358201,-0.598606408,0.210917875,10.17112637,1.836609006,-5.28211832,-107.3655548,189.9332123,-25.00057983,-0.745605469,0.28515625,-0.468261719
185,1212315387,0.734298408,0.26074183,-0.590860546,0.209054217,9.354054451,0.952490091,-5.044709206,-104.8436356,171.3545227,-12.38968849,-0.750488281,0.297851563,-0.482910156
186,1212323720,0.742306113,0.253694564,-0.584168136,0.208251789,8.065973282,0.58933115,-4.695059299,-87.73423004,149.6909637,2.150845766,-0.712402344,0.30078125,-0.477539063
187,1212332053,0.74840945,0.24740991,-0.579028487,0.208322719,6.666725159,-0.257439762,-3.488740921,-70.74584198,119.5501785,15.75426674,-0.719726563,0.309570313,-0.484375
188,1212340386,0.752504408,0.241946787,-0.575909138,0.208633989,5.63882494,-1.115685225,-2.739074469,-59.32784271,81.12458801,24.36511803,-0.687988281,0.314941406,-0.475097656
189,1212348719,0.75442028,0.238090664,-0.574844062,0.20908834,5.267630577,-1.204211593,-3.23145175,-40.21194458,38.57993698,26.15382004,-0.69921875,0.323242188,-0.486328125
190,1212357052,0.754350424,0.236333966,-0.57547456,0.20959799,5.580179214,-1.196838498,-4.071534157,-16.36743164,-0.64237994,21.4342804,-0.674804688,0.325683594,-0.478027344
191,1212365385,0.752658844,0.236824095,-0.577263057,0.210206881,5.981208324,-1.113897443,-5.411920547,9.657512665,-31.5633564,13.07927132,-0.691894531,0.333007813,-0.485839844
192,1212373718,0.749813616,0.238982514,-0.579866588,0.210765362,6.146748066,-0.913397551,-6.039443016,27.9254837,-54.18798828,5.332221985,-0.676757813,0.326171875,-0.479003906
193,1212382051,0.745989203,0.24229081,-0.583175778,0.211428031,6.327127934,-0.484714448,-6.395941257,41.78656006,-72.21909332,2.366603374,-0.701660156,0.331542969,-0.483886719
194,1212390384,0.741389096,0.24622567,-0.587088943,0.212231249,6.782790661,-0.212852374,-6.773992062,50.16592789,-85.98628235,3.066524267,-0.688964844,0.3203125,-0.474121094
195,1212398717,0.736160517,0.250434488,-0.591525078,0.21318756,7.505164146,-0.145300224,-6.955575466,54.80036545,-96.67674255,6.004924774,-0.71875,0.325195313,-0.484863281
196,1212407050,0.730458975,0.254942983,-0.596179187,0.214487106,8.34416008,-0.22604531,-6.884314537,61.60913849,-102.3688965,9.186983109,-0.705078125,0.316894531,-0.477539063
197,1212415383,0.724531054,0.259709567,-0.600762904,0.216079041,9.195426941,-0.179943562,-6.740372658,67.60788727,-103.3132706,10.420331,-0.737792969,0.318847656,-0.490722656
198,1212423716,0.719684362,0.262542576,-0.605314493,0.216149762,10.49347687,0.851587534,0.081276998,31.99595261,-93.63529968,7.909910679,-0.725097656,0.314453125,-0.480957031
199,1212432049,0.71907717,0.257514179,-0.610318959,0.210061029,15.16444969,4.821633339,18.84100533,-113.7199707,-61.8102417,1.424057126,-0.756347656,0.321289063,-0.48046875
200,1212440382,0.715510547,0.258807421,-0.613457203,0.211504266,27.11017418,10.5431881,2.854913473,27.86324692,-59.63708878,24.78253365,-0.745117188,0.326660156,-0.462402344
201,1212448715,0.711805284,0.261465251,-0.614619911,0.21728307,32.79922104,-4.93223238,5.093764782,84.120224,-30.05161285,49.30755615,-0.768066406,0.327148438,-0.473144531
202,1212457048,0.7088328,0.270787746,-0.612009883,0.222877607,20.19899559,-7.284719467,-0.685448289,156.4276886,-7.41697073,-24.55298996,-0.749511719,0.318359375,-0.473144531
203,1212465381,0.703064442,0.286115259,-0.607375085,0.234380811,10.09770584,0.7257967,-8.38079834,281.3345337,-7.703354836,-16.49664307,-0.776855469,0.295898438,-0.501464844
204,1212473714,0.696435332,0.300147414,-0.603803277,0.2455841,1.268084168,0.848855376,-3.691544294,266.2566223,-22.0853653,-1.658190489,-0.758789063,0.268554688,-0.521972656
205,1212482047,0.690169811,0.310692817,-0.602813065,0.252493083,-1.713402152,6.888878345,2.593737602,186.9844513,-49.83019638,-4.36693573,-0.785644531,0.247558594,-0.548828125
206,1212490380,0.684111834,0.314344943,-0.607073545,0.254244715,3.028119802,13.94007683,0.456170052,59.67210388,-95.91016388,25.49400902,-0.775390625,0.234375,-0.543945313
207,1212498713,0.677948713,0.314825624,-0.613845527,0.253898323,7.246659756,11.25410748,-3.102942944,4.006237507,-118.5287018,43.50417328,-0.803710938,0.239746094,-0.548828125
208,1212507046,0.673180938,0.313572705,-0.620845616,0.251098752,10.67720413,1.293396354,-1.846648455,-39.71535873,-113.3245316,31.40807915,-0.794921875,0.244140625,-0.534179688
209,1212515379,0.669238567,0.313441396,-0.626398206,0.247991487,11.89087486,-3.486059189,-4.515203476,-30.50576591,-98.19623566,9.86696434,-0.828613281,0.251464844,-0.510742188
210,1212523712,0.664945662,0.315710574,-0.630045831,0.247419849,12.32871342,-3.248219252,-2.913036346,21.4210453,-80.80130768,5.56819725,-0.821289063,0.250976563,-0.494140625
211,1212532045,0.660093665,0.319375813,-0.63249886,0.249440819,12.2213726,-0.629097283,-2.270450592,63.15705872,-68.35734558,13.83672619,-0.853515625,0.248535156,-0.493164063
212,1212540378,0.655188978,0.322228104,-0.635049343,0.252208769,11.5692215,2.10153389,-1.724462271,62.15444946,-63.46072388,28.32222176,-0.842773438,0.242675781,-0.488769531
213,1212548711,0.650735259,0.323286057,-0.638316572,0.254130304,10.00173569,1.841045022,-1.35182929,34.12907791,-63.67833328,37.95245743,-0.875,0.241699219,-0.501464844
214,1212557044,0.646788657,0.323143303,-0.642007232,0.25508827,8.67647171,0.147799611,-1.064129591,11.17614937,-62.92339706,40.00160599,-0.860351563,0.241210938,-0.492675781
215,1212565377,0.643305659,0.322434545,-0.645843863,0.255108386,7.783842087,-1.309209585,-1.459580421,-4.693393707,-62.48929977,35.65748978,-0.890625,0.245117188,-0.497070313
216,1212573710,0.639454126,0.322557032,-0.649531186,0.255274683,8.481636047,-0.700268626,-3.015771389,6.100353718,-66.52427673,30.21972847,-0.879394531,0.248535156,-0.491699219
217,1212582043,0.635571122,0.323218226,-0.652937055,0.255446911,10.45908737,1.087329149,-3.353395224,12.0324049,-66.37937164,24.30226707,-0.911621094,0.253417969,-0.501953125
218,1212590376,0.632352829,0.323089242,-0.656315088,0.254939497,11.34675312,2.71052742,-2.669565678,-3.846734524,-60.21724319,23.0053978,-0.90234375,0.250488281,-0.486328125
219,1212598709,0.629670084,0.321741015,-0.66003263,0.253683776,10.36504364,3.738751411,-2.47272563,-24.75894547,-57.58236313,27.12467194,-0.930175781,0.261230469,-0.48046875
220,1212607042,0.627433717,0.31909436,-0.664370358,0.251232952,8.715919495,3.339429617,-2.386892557,-51.00072098,-59.44624329,29.76555061,-0.918457031,0.260742188,-0.469726563
221,1212615375,0.625404537,0.315518767,-0.669373512,0.24750042,8.125045776,1.886746049,-1.992323399,-73.92175293,-65.92378235,29.38137817,-0.947265625,0.271484375,-0.460449219
222,1212623708,0.62326628,0.311865956,-0.67451793,0.243526042,9.001729012,0.532417119,-1.915423632,-76.82643127,-68.70607758,29.03839684,-0.937988281,0.281738281,-0.44140625
223,1212632041,0.620733798,0.309111238,-0.679177284,0.240537956,10.42624092,-0.57213372,-2.092149019,-56.65711594,-67.20690155,28.35968781,-0.969238281,0.29296875,-0.42578125
224,1212640374,0.617693126,0.30776608,-0.683065534,0.239075527,11.61080647,-1.541047931,-2.499098778,-25.67073441,-63.31838989,26.66962814,-0.958007813,0.294433594,-0.409667969
225,1212648707,0.614366233,0.307870388,-0.6859954,0.239125043,11.7624712,-1.905170083,-2.588222027,5.211476803,-56.46082687,22.73364258,-0.985351563,0.305175781,-0.398925781
226,1212657040,0.610942483,0.309031785,-0.688067377,0.240442067,10.94857788,-1.12465322,-1.986109495,29.32635689,-48.00260925,20.19329071,-0.974609375,0.297851563,-0.387207031
227,1212665373,0.607550263,0.310694635,-0.689710081,0.242181987,9.910876274,0.062590964,-2.633455515,38.8297348,-44.19377136,17.03704453,-1.000976563,0.303222656,-0.382324219
228,1212673706,0.604314804,0.312006742,-0.691547036,0.243348882,9.528721809,0.122656256,-2.807906866,29.14217758,-45.36824036,15.90298939,-0.992675781,0.297851563,-0.378417969
229,1212682039,0.601561069,0.312353611,-0.693678319,0.243660733,9.571985245,-0.118813686,-2.482999563,9.943863869,-43.91262054,17.60688972,-1.017089844,0.302246094,-0.370117188
230,1212690372,0.598947585,0.312488645,-0.695823431,0.243809223,9.536957741,-0.223491043,-2.883849621,5.979846478,-42.43459702,17.8822155,-1.008300781,0.302246094,-0.360839844
231,1212698705,0.596460462,0.312714219,-0.69784379,0.243842646,9.893186569,-0.928990364,-3.131157637,5.50421381,-41.2424469,15.09255981,-1.032714844,0.303710938,-0.346679688
232,1212707038,0.594288111,0.312945634,-0.699675739,0.243600041,10.40979385,-0.89025867,-3.447675943,2.176329136,-37.62956238,10.92045021,-1.024414063,0.301757813,-0.341796875
233,1212715371,0.59252423,0.312828362,-0.701382339,0.243139431,10.21175671,0.010765505,-3.112310171,-4.103788376,-32.69836807,10.57076073,-1.046386719,0.307128906,-0.329589844
234,1212723704,0.590986013,0.312427938,-0.703171909,0.242227003,10.07583523,0.427321881,-2.906617641,-12.02169609,-31.93256187,9.230676651,-1.033203125,0.303710938,-0.319824219
235,1212732037,0.589554012,0.3119196,-0.70496434,0.241159499,10.37538242,0.466842085,-2.604365587,-14.85967922,-31.49819374,8.665701866,-1.060546875,0.310546875,-0.311035156
236,1212740370,0.588351727,0.311176032,-0.706731796,0.239879534,10.28559971,0.227542147,-2.271628141,-19.73424911,-28.92949104,8.360175133,-1.048828125,0.308105469,-0.298828125
237,1212748703,0.587126613,0.310784698,-0.708231509,0.238963798,9.902104378,0.108991131,-2.586399317,-12.35785198,-26.86015511,6.808255196,-1.070800781,0.309570313,-0.287109375
238,1212757036,0.585828245,0.310765147,-0.709494412,0.238428816,9.447696686,-0.162876368,-2.751806259,-4.562000275,-24.98111725,5.497342587,-1.056152344,0.309570313,-0.27734375
239,1212765369,0.584540844,0.311034799,-0.71050179,0.238236725,9.096027374,-0.054878868,-2.378753185,1.908581734,-22.57227516,4.301900387,-1.081054688,0.312988281,-0.263671875
240,1212773702,0.583156526,0.311461538,-0.711437285,0.23828055,8.909352303,0.179729447,-2.093080044,6.122662544,-22.17030907,4.679018497,-1.068847656,0.30859375,-0.256347656
241,1212782035,0.581750691,0.311883688,-0.712413609,0.23824802,9.312717438,0.280575693,-1.931245089,5.302213669,-23.29728508,4.350695133,-1.089355469,0.311523438,-0.245605469
242,1212790368,0.580337286,0.312212169,-0.713497519,0.238020599,9.907091141,0.314021915,-2.098061085,0.87005198,-24.51931572,4.51308918,-1.081054688,0.307617188,-0.238769531
243,1212798701,0.579040945,0.31220001,-0.714717984,0.237531841,10.48820305,0.281809837,-1.517053485,-3.908606529,-24.71029663,5.656381607,-1.097167969,0.310058594,-0.2265625
244,1212807034,0.5777843,0.312217563,-0.715915143,0.236963332,10.59741497,0.536178946,-1.563500643,-6.161865711,-24.33292007,4.861571312,-1.086914063,0.307128906,-0.220214844
245,1212815367,0.576446295,0.312182188,-0.717204809,0.236367837,10.46590519,0.131598473,-1.677032471,-5.189114571,-26.05210114,5.467810631,-1.104980469,0.311035156,-0.204589844
246,1212823700,0.575224996,0.312005609,-0.718534708,0.235535607,9.962947845,-0.051027302,-1.243083,-10.80685902,-25.54435158,5.138718605,-1.09375,0.306640625,-0.198730469
247,1212832033,0.574068069,0.311787635,-0.719848812,0.234632462,9.252589226,0.360413104,-1.304207325,-10.52848244,-25.1848011,4.34897995,-1.112792969,0.310546875,-0.184082031
248,1212840366,0.572747111,0.311484873,-0.721402407,0.233488768,8.928731918,0.103549793,-1.157817364,-15.14471054,-29.23019028,5.207595825,-1.100097656,0.303222656,-0.177246094
249,1212848699,0.571388364,0.310983896,-0.723141849,0.232100993,9.061109543,-0.202878445,-1.007448196,-18.06579399,-31.70754242,5.808586121,-1.118164063,0.308105469,-0.161132813
250,1212857032,0.569792747,0.310697556,-0.72490555,0.230902508,9.152755737,-0.340353906,-1.017571807,-15.00463295,-33.90471268,6.383651733,-1.102539063,0.304199219,-0.151367188
251,1212865365,0.568030059,0.310412079,-0.7267856,0.229716524,9.397535324,-0.698592305,-0.784792304,-13.0847683,-36.65402222,7.13817215,-1.1171875,0.309082031,-0.133789063
252,1212873698,0.566123128,0.310415655,-0.728580415,0.228730559,9.586089134,-0.214235902,-0.814809263,-9.313193321,-37.27291107,6.262290955,-1.108398438,0.305175781,-0.126953125
253,1212882031,0.564087391,0.310445994,-0.730454206,0.227740571,9.604897499,0.157783583,-0.725535691,-7.474808216,-39.49444199,6.343720436,-1.123535156,0.30859375,-0.111328125
254,1212890364,0.561823606,0.310503364,-0.73251605,0.226633027,9.658854485,0.159463391,-0.924866199,-9.197627068,-43.62091064,6.988330841,-1.111816406,0.3046875,-0.10546875
255,1212898697,0.559398949,0.310551882,-0.734727502,0.22540237,9.663764,0.257003367,-1.094413519,-9.148425102,-47.10731888,6.957699776,-1.12890625,0.307128906,-0.087890625
256,1212907030,0.556916475,0.310691655,-0.736968875,0.224035412,9.726441383,0.784355164,-0.949401855,-10.72288609,-48.58414078,5.595224857,-1.112304688,0.300292969,-0.079589844
257,1212915363,0.554276884,0.31074518,-0.739370525,0.222589225,9.688885689,0.937177062,-1.320401788,-10.9558239,-51.6794281,6.72945261,-1.131347656,0.303222656,-0.062988281
258,1212923696,0.551516294,0.310652792,-0.741977572,0.220894486,9.554768562,0.55699265,-1.20887804,-15.65228844,-54.8978157,7.857406139,-1.1171875,0.304199219,-0.054199219
259,1212932029,0.548628032,0.310649872,-0.744607866,0.219234392,9.403778076,0.670809567,-1.609172106,-13.19951534,-56.69307709,7.40477705,-1.130859375,0.306640625,-0.037597656
260,1212940362,0.545429409,0.310660928,-0.747461736,0.217480764,9.408912659,0.231967896,-2.26996541,-14.0777359,-61.81415558,8.671589851,-1.116699219,0.303710938,-0.024902344
261,1212948695,0.542188287,0.310148597,-0.750670314,0.215253934,9.729269028,-0.084067777,-2.110021591,-23.0697422,-65.55180359,11.91852283,-1.130859375,0.303710938,-0.007324219
262,1212957028,0.538861692,0.308933288,-0.754128158,0.213259578,10.25412846,-2.052032232,-2.355234623,-26.71713066,-65.03943634,22.38677979,-1.115234375,0.3046875,0.004394531
263,1212965361,0.534635842,0.308295071,-0.757570267,0.212618336,10.46556854,-3.509324074,-3.77316165,-4.109082222,-70.37371826,28.83661461,-1.127929688,0.305664063,0.022949219
264,1212973694,0.531168461,0.307963252,-0.760495663,0.211342514,11.31221104,-1.687599421,-2.854746819,-10.56030273,-62.08346939,16.71935844,-1.114746094,0.307128906,0.036621094
265,1212982027,0.528860331,0.306638986,-0.763495505,0.208217353,10.38977909,2.863353729,-2.867557764,-41.88759232,-55.62618256,10.38760185,-1.119140625,0.311035156,0.052734375
266,1212990360,0.526415288,0.30488199,-0.766955614,0.204238757,9.243947029,4.028162956,-3.055763483,-54.97996521,-62.6033287,11.14191628,-1.106445313,0.305175781,0.061523438
267,1212998693,0.523340404,0.303219914,-0.77068013,0.200561926,8.905543327,2.634359598,-3.321777344,-48.96846771,-70.32872009,15.11901855,-1.118164063,0.30859375,0.088867188
268,1213007026,0.519883215,0.302176148,-0.774276018,0.197251424,9.257064819,0.780168295,-3.577568293,-38.97903061,-73.46838379,11.85396862,-1.104980469,0.307617188,0.097167969
269,1213015359,0.516320407,0.302045614,-0.777332366,0.19477348,9.66610527,1.388836741,-3.642790318,-21.39034081,-69.91996765,5.99315691,-1.114257813,0.309082031,0.120605469
270,1213023692,0.512419581,0.3025693,-0.780194819,0.192806795,9.636684418,1.43462646,-3.554207325,-9.348649025,-71.61751556,2.756193638,-1.102050781,0.306152344,0.127929688
271,1213032025,0.508232355,0.303509951,-0.782953799,0.191221297,9.764930725,1.329858541,-2.954651833,-0.862589002,-73.64798737,1.271048427,-1.110839844,0.306152344,0.148925781
272,1213040358,0.50362283,0.304903567,-0.785645843,0.190154701,9.931538582,0.658241034,-3.416787624,9.995864868,-76.58905792,0.814575315,-1.09375,0.297851563,0.154785156
273,1213048691,0.498683184,0.306654304,-0.78824991,0.189580947,10.34501553,0.128829122,-3.256411314,19.24064064,-78.57561493,0.902868629,-1.104003906,0.301269531,0.176269531
274,1213057024,0.493587971,0.308631063,-0.790744185,0.189319909,10.60713863,0.412579358,-3.218893051,25.12665367,-78.62717438,0.581305742,-1.090820313,0.295898438,0.181152344
275,1213065357,0.488356441,0.310594618,-0.793290734,0.189022034,10.69823742,0.630495489,-3.166608095,25.07532883,-80.74085236,1.008682013,-1.097167969,0.296386719,0.198242188
276,1213073690,0.483134717,0.312366396,-0.795932889,0.188412815,10.62991905,0.913600206,-2.89741683,20.07550049,-81.96321869,1.450607181,-1.082519531,0.29296875,0.205566406
277,1213082023,0.477919698,0.313820451,-0.798766613,0.187301964,10.33869553,0.904885113,-2.963613749,11.97320938,-84.63684845,2.344140291,-1.090332031,0.293945313,0.227050781
278,1213090356,0.472631216,0.314978659,-0.801835179,0.185658664,10.18805504,0.700568676,-2.664436817,3.774885416,-88.39628601,3.411519527,-1.075195313,0.289550781,0.232910156
279,1213098689,0.467256486,0.315887779,-0.805085003,0.18364343,10.08868885,0.618198454,-2.73940444,-1.917521238,-91.62589264,4.631612778,-1.083496094,0.288085938,0.253417969
280,1213107022,0.461651146,0.316646308,-0.808530927,0.181360364,10.20468426,0.390807629,-2.597942352,-5.561664104,-96.11356354,6.196992397,-1.065917969,0.28515625,0.260253906
281,1213115355,0.455800146,0.317303509,-0.81210345,0.179033935,10.40583134,0.349933386,-2.399692535,-5.715149403,-99.69620514,8.02745533,-1.069824219,0.285644531,0.28515625
282,1213123688,0.449666232,0.31793496,-0.815799177,0.17660667,10.59982204,0.516887665,-2.031693697,-6.486406803,-103.9114609,9.237953186,-1.0546875,0.284667969,0.295410156
283,1213132021,0.443239033,0.318431437,-0.81967634,0.173988372,11.22496986,0.678187311,-1.172183394,-8.20765686,-108.9229507,10.75554466,-1.061523438,0.286132813,0.317382813
284,1213140354,0.436113298,0.319103032,-0.823693097,0.171780676,12.21531963,0.330530107,-2.194695473,-0.132017359,-116.2022171,13.86265564,-1.047363281,0.281738281,0.327636719
285,1213148687,0.428484797,0.32005012,-0.827676296,0.170063064,13.19626999,0.726670265,-2.086389065,9.702581406,-120.2630081,14.42516518,-1.050292969,0.288574219,0.350585938
286,1213157020,0.420759439,0.321152717,-0.831515908,0.16853568,13.57592773,3.212650299,-0.576633334,13.00048065,-120.0090637,13.83492661,-1.037597656,0.2890625,0.35546875
287,1213165353,0.412457645,0.321658045,-0.835863829,0.166574553,13.57264996,3.407436848,-1.272155643,6.49731636,-130.109314,21.27150154,-1.037597656,0.2890625,0.380859375
288,1213173686,0.403582871,0.321397424,-0.840762258,0.164146081,14.39261341,2.305437803,-1.326702833,-2.49907279,-140.1363831,31.69518661,-1.025390625,0.29296875,0.385742188
289,1213182019,0.394678414,0.320261836,-0.846029222,0.160923213,15.21939087,3.049941778,0.530311584,-16.68767357,-144.0556793,38.57663727,-1.023925781,0.297363281,0.412109375
290,1213190352,0.385615557,0.318321824,-0.851734161,0.156592593,16.3494091,5.084473133,2.71225667,-34.69363785,-151.4264069,44.73058701,-1.0078125,0.302246094,0.423339844
291,1213198685,0.376619667,0.315446913,-0.857896149,0.150550485,17.43223953,6.351068974,3.349931479,-60.49402237,-158.4944611,47.93383026,-1.002929688,0.307617188,0.455566406
292,1213207018,0.36798811,0.311564118,-0.864377439,0.142704859,16.92990875,5.824355602,3.503109932,-89.65690613,-161.719696,51.66772842,-0.985839844,0.30859375,0.470214844
293,1213215351,0.359824061,0.306351572,-0.871232212,0.132779166,15.10387135,4.643065453,2.838263988,-123.4253311,-164.2254333,57.07755661,-0.983398438,0.311523438,0.509765625
294,1213223684,0.351818174,0.300271779,-0.878236175,0.121501409,13.46437645,3.640622854,1.113884091,-145.3026581,-167.423233,61.79157639,-0.961914063,0.315429688,0.527832031
295,1213232017,0.343072236,0.293818265,-0.885338247,0.110222697,12.21455193,1.802799821,-2.915351868,-143.7846069,-175.9733276,67.2697525,-0.956542969,0.316894531,0.565429688
296,1213240350,0.332776934,0.287686497,-0.892424583,0.100372612,11.25255299,0.011208367,-7.759533405,-119.1475143,-189.8217926,73.25793457,-0.940917969,0.319335938,0.590332031
297,1213248683,0.322233021,0.281292439,-0.899451494,0.089598238,11.6081028,-0.559820056,-7.935385227,-130.0665894,-195.5531921,71.47602844,-0.928222656,0.32421875,0.626464844
298,1213257016,0.313281745,0.274703056,-0.905716717,0.077912427,13.4629097,-2.120984793,-8.081377029,-147.9298401,-176.1599884,65.8239975,-0.909179688,0.323730469,0.650390625
299,1213265349,0.305972457,0.268319935,-0.911007583,0.066715159,14.32020187,-3.394165039,-8.017346382,-145.6118011,-149.4886169,59.03794479,-0.901367188,0.323730469,0.68359375
300,1213273682,0.300067276,0.263017535,-0.915209711,0.056330565,14.02162266,-4.279877663,-8.23760891,-134.9503174,-125.7115326,43.67041397,-0.885742188,0.318359375,0.696289063
301,1213282015,0.295564413,0.260174006,-0.918007553,0.047050927,12.44454002,-4.568451405,-6.413713455,-114.9944839,-99.76869202,11.05849361,-0.880859375,0.314941406,0.722167969
302,1213290348,0.292161733,0.26010707,-0.919446886,0.040044375,11.24244404,-4.180681229,-5.290570736,-77.98065186,-74.47163391,-20.30454254,-0.876464844,0.307617188,0.723632813
303,1213298681,0.289090544,0.261963725,-0.91999954,0.037454076,9.566281319,-2.907854319,-5.97068119,-15.19843769,-51.53194427,-30.25855446,-0.881835938,0.302734375,0.737304688
304,1213307014,0.285659641,0.264621168,-0.92022258,0.03956005,6.985750198,-2.140126944,-7.693797588,48.92966461,-38.75561905,-22.72619057,-0.877441406,0.305664063,0.723632813
305,1213315347,0.282090366,0.26748392,-0.920307159,0.043734193,4.880280972,-2.748713255,-8.985431671,76.42169952,-32.0579071,-17.6259079,-0.887695313,0.311523438,0.724121094
306,1213323680,0.278940707,0.270143926,-0.920247138,0.048579477,3.989207268,-2.92907691,-9.916077614,82.72181702,-24.10531044,-13.24669552,-0.883789063,0.320800781,0.696777344
307,1213332013,0.275917053,0.271878779,-0.920387983,0.053273264,3.395480394,-2.349231482,-8.000310898,76.60451508,-22.71734238,-1.450824142,-0.890136719,0.329101563,0.699707031
308,1213340346,0.272923291,0.272930831,-0.920755625,0.056845095,4.02068758,-1.317343712,-5.637200832,59.56386185,-27.38991356,3.750155926,-0.886230469,0.340332031,0.678222656
309,1213348679,0.270858228,0.27400139,-0.92086786,0.059682965,5.834645748,-0.333799928,-4.27548933,47.02559662,-16.94500542,-0.912970185,-0.890625,0.344726563,0.676757813
310,1213357012,0.270574659,0.275778145,-0.920147896,0.063749582,7.689887047,0.223858505,-4.68173933,59.20172501,12.27211571,-9.887460709,-0.887695313,0.349609375,0.65234375
311,1213365345,0.271969467,0.278636575,-0.918453455,0.069555067,8.310419083,-0.011270614,-5.196416855,79.70345306,43.27375031,-22.26329613,-0.895996094,0.356933594,0.646484375
312,1213373678,0.275147021,0.282559276,-0.915747583,0.076558247,7.356916904,-1.261737585,-6.139265537,92.96578979,72.63291168,-36.80356598,-0.899902344,0.361816406,0.609863281
313,1213382011,0.279500723,0.287549376,-0.912101865,0.085236855,5.341588974,-1.733442187,-8.266834259,114.5058212,96.90100098,-48.79792786,-0.916992188,0.364257813,0.596679688
314,1213390344,0.284575522,0.292674989,-0.908012986,0.094185844,3.250928879,-1.808778405,-8.5594244,116.1062927,108.02491,-52.04181671,-0.924316406,0.37109375,0.551269531
315,1213398677,0.290263027,0.296738893,-0.90409255,0.101540945,1.995996118,-1.535553336,-7.638940334,89.34410095,110.5088654,-45.15239334,-0.942871094,0.374511719,0.534667969
316,1213407010,0.296775252,0.299436361,-0.900441885,0.107084543,1.457189798,-0.051847145,-6.484068394,57.64138031,113.6791534,-35.42144775,-0.9453125,0.372070313,0.490722656
317,1213415343,0.303831547,0.300925374,-0.897172451,0.110509552,1.669168949,1.240603685,-5.993668079,23.65748405,112.4393845,-28.35958481,-0.958984375,0.375976563,0.478515625
318,1213423676,0.311286598,0.301900268,-0.893973649,0.112997748,2.653675556,1.686025977,-6.107286453,8.209115982,113.4659882,-26.22001839,-0.955566406,0.368652344,0.443359375
319,1213432009,0.319438756,0.302873194,-0.89041692,0.115692817,3.710551262,0.445328593,-5.801370144,8.390896797,124.931839,-27.90247917,-0.975585938,0.372070313,0.431640625
320,1213440342,0.328524798,0.303778708,-0.886377215,0.118852414,4.172192574,-1.164168835,-6.150119305,10.688694,140.0461731,-28.5032692,-0.97265625,0.366699219,0.392578125
321,1213448675,0.338284016,0.304642111,-0.881917596,0.122388065,4.116443157,-1.89626348,-6.468501568,12.92858696,152.2741241,-29.17753983,-0.988769531,0.368652344,0.374511719
322,1213457008,0.348781526,0.305493921,-0.876890421,0.126840919,3.785923481,-1.513140559,-6.237030506,21.88932228,167.2546082,-28.35658455,-0.984863281,0.36328125,0.334960938
323,1213465341,0.359697014,0.306318045,-0.871390164,0.132163435,3.35311532,-0.571912587,-6.261082172,31.28562737,178.7428894,-26.60065842,-1.000488281,0.362304688,0.30859375
324,1213473674,0.370922536,0.307031214,-0.865536153,0.137826592,3.311800718,-0.072084986,-6.254245758,34.17712784,185.3799896,-25.60936546,-0.992675781,0.360839844,0.269042969
325,1213482007,0.382523984,0.307333916,-0.859502852,0.143097281,3.611774921,0.170431063,-6.259667873,26.14256287,190.3546753,-24.22720337,-1.009277344,0.361816406,0.2421875
326,1213490340,0.394690037,0.30713588,-0.853287339,0.147609249,3.887654305,0.36337328,-6.709003925,12.53453827,195.3185272,-24.14623642,-0.994628906,0.358886719,0.19921875
327,1213498673,0.407280117,0.306480438,-0.846947849,0.151236281,4.223315239,0.596313357,-6.372313023,-1.89298439,198.6067352,-24.99991608,-1.010742188,0.359863281,0.177246094
328,1213507006,0.42039302,0.30526036,-0.840490937,0.15382278,4.777647972,0.907199085,-5.899887562,-19.11022568,201.7113037,-25.79704285,-0.994140625,0.352539063,0.138671875
329,1213515339,0.434002012,0.30354169,-0.833856583,0.155526787,5.590984821,1.142703414,-6.023904324,-33.92417526,206.2518921,-26.96863937,-1.006347656,0.353515625,0.116210938
330,1213523672,0.447977811,0.3013933,-0.826977611,0.156800747,6.392912865,0.983630717,-6.272725105,-42.40142441,210.6298218,-26.3740654,-0.988769531,0.351074219,0.08203125
331,1213532005,0.462174982,0.299080402,-0.819709778,0.158182323,6.878935814,0.452317506,-6.525091648,-42.29675674,216.7567596,-25.96820259,-1.00390625,0.353027344,0.055175781
332,1213540338,0.47669366,0.296724498,-0.811882675,0.159889534,7.136796474,-0.026013967,-6.284291267,-38.97353745,224.9672546,-26.36898422,-0.982910156,0.34765625,0.020019531
333,1213548671,0.491519392,0.294473648,-0.803391874,0.16203779,7.088536739,-0.354018092,-6.631000042,-33.18700409,234.7204437,-28.07858086,-0.991699219,0.350097656,-0.002441406
334,1213557004,0.506342351,0.292574167,-0.794278085,0.1647439,7.08428812,-0.309865743,-6.651574612,-23.21626091,239.9883728,-30.66629219,-0.965332031,0.34375,-0.041992188
335,1213565337,0.5210675,0.290769547,-0.784741759,0.16769813,7.561507225,-0.005183827,-6.436249733,-18.52635384,243.0323334,-31.49243164,-0.976074219,0.344238281,-0.067382813
336,1213573670,0.535799086,0.288950443,-0.774735153,0.170917347,8.35449028,-0.022111611,-6.443397522,-14.68093872,247.197113,-31.29637146,-0.947753906,0.342285156,-0.1015625
337,1213582003,0.55044353,0.287449449,-0.764110208,0.174701929,9.001297951,-0.267474174,-6.602311611,-4.544839859,252.6937866,-32.80889511,-0.955078125,0.344726563,-0.1328125
338,1213590336,0.564952195,0.28638038,-0.752828836,0.179065183,9.560926437,-0.624774456,-6.58476305,6.94918251,257.1393738,-35.2006073,-0.919921875,0.334472656,-0.166503906
339,1213598669,0.579270363,0.285960644,-0.740806639,0.184060737,10.04500008,-0.821109056,-6.636956215,21.08642578,262.1611633,-39.49633026,-0.925292969,0.337890625,-0.197753906
340,1213607002,0.593447447,0.28612566,-0.728063226,0.18941088,10.31190586,-0.474431545,-6.375963211,31.7636795,266.0619507,-45.07107544,-0.892578125,0.325683594,-0.234863281
341,1213615335,0.607352436,0.286774933,-0.714778781,0.194871232,10.35197163,0.094124362,-6.332978725,39.27311707,267.2486572,-50.47766495,-0.891113281,0.325195313,-0.266601563
342,1213623668,0.620949149,0.287656844,-0.701127827,0.200239807,10.4040308,0.497743517,-6.064934254,42.53776169,265.9962463,-54.1166954,-0.853515625,0.315429688,-0.300292969
343,1213632001,0.634187937,0.288486421,-0.687347829,0.205267549,10.60303688,0.696375728,-6.053003788,40.54903412,262.7402649,-56.08081055,-0.860351563,0.312011719,-0.330566406
344,1213640334,0.646962941,0.289197475,-0.673596561,0.209932983,11.24316978,0.974718332,-6.21944809,37.87529373,256.7355042,-56.66234207,-0.819335938,0.300292969,-0.358886719
345,1213648667,0.659328878,0.289553434,-0.660046756,0.213969499,12.30752659,1.404828787,-6.650725365,29.90976715,249.9427185,-57.02029419,-0.819335938,0.30078125,-0.387207031
346,1213657000,0.671447992,0.28938207,-0.64671576,0.217197925,13.34799385,1.968656778,-7.200378895,18.15575027,243.8206787,-57.92643356,-0.779785156,0.291503906,-0.410644531
347,1213665333,0.683636904,0.287938237,-0.633913696,0.218829349,13.93768215,2.634775162,-5.952954769,-9.679387093,237.2323608,-59.49566269,-0.780761719,0.288085938,-0.436523438
348,1213673666,0.69568187,0.284853816,-0.622014999,0.219049945,13.45386219,2.923649788,-5.470218658,-39.53123474,226.6481323,-54.40697479,-0.740722656,0.284179688,-0.447753906
349,1213681999,0.707172751,0.280241191,-0.611287653,0.218402103,12.40625095,2.785881996,-4.92904377,-62.95772171,212.0876312,-43.42483902,-0.744140625,0.2890625,-0.467285156
350,1213690332,0.717986822,0.274259061,-0.601858377,0.2168964,11.45923996,1.476228714,-4.515665054,-84.76515961,194.4384918,-33.17393494,-0.707519531,0.290039063,-0.472167969
351,1213698665,0.727863014,0.267867506,-0.593429744,0.21518454,10.42986679,0.988597929,-4.647451401,-89.9736557,177.3818359,-25.29546165,-0.708496094,0.300292969,-0.485839844
352,1213706998,0.736566842,0.26150316,-0.586038947,0.21364525,9.191043854,1.269008875,-4.45528841,-87.03905487,157.8722229,-16.44855309,-0.672851563,0.302246094,-0.475097656
353,1213715331,0.743789256,0.255138278,-0.580131054,0.21243985,7.804983139,1.457645297,-3.500985622,-83.38873291,132.223053,-3.425107241,-0.681640625,0.312011719,-0.480957031
354,1213723664,0.749259651,0.248687968,-0.576235354,0.211465329,6.575763702,1.416663766,-2.783935308,-82.15197754,98.65677643,11.83990574,-0.65234375,0.311035156,-0.471191406
355,1213731997,0.752768338,0.242294461,-0.574702382,0.210596591,5.641521931,0.4225021,-2.5461936,-80.88895416,59.03005981,26.21942902,-0.6640625,0.328125,-0.477539063
356,1213740330,0.754350901,0.236775726,-0.575236499,0.209750667,5.247032642,-0.710202336,-3.309919119,-71.22843933,19.91373253,32.05620193,-0.639648438,0.330566406,-0.463378906
357,1213748663,0.75415206,0.233041883,-0.577309847,0.208949313,5.270685196,-1.296313524,-4.282100201,-50.9937439,-15.1119318,28.50298309,-0.656738281,0.344726563,-0.470703125
358,1213756996,0.752520204,0.231481209,-0.580358088,0.208122015,5.768859386,-1.402860045,-5.197410583,-26.87752151,-42.93625259,18.26257324,-0.637695313,0.345214844,-0.455078125
359,1213765329,0.749801695,0.231819645,-0.584007204,0.207348078,6.417626381,-0.91162622,-5.779604435,-5.052579403,-63.08056259,8.639955521,-0.659667969,0.353027344,-0.465820313
360,1213773662,0.746223807,0.233474836,-0.588143468,0.20670557,6.851249695,-0.247532263,-6.17881918,10.9222393,-78.3119278,3.45252347,-0.642089844,0.348632813,-0.451660156
361,1213781995,0.74195981,0.235852167,-0.592743397,0.206216231,7.208314896,0.058805238,-6.272153378,20.46489334,-90.21025848,2.594140053,-0.671875,0.354980469,-0.458496094
362,1213790328,0.737054229,0.238666698,-0.597795486,0.205986783,7.72783947,-0.139233917,-6.044354916,27.83045387,-100.3698273,4.98745966,-0.666015625,0.346191406,-0.451660156
363,1213798661,0.731732607,0.24171856,-0.603104174,0.205926105,8.699932098,-0.277579665,-4.333868504,32.27422714,-106.5903397,6.747926235,-0.697265625,0.352050781,-0.458496094
364,1213806994,0.728119195,0.241085649,-0.608740032,0.202870324,11.34041786,1.129806638,7.777496815,-36.2640419,-95.10525513,3.433632374,-0.685546875,0.348632813,-0.4453125
365,1213815327,0.727182865,0.236629352,-0.613549113,0.19690083,19.16012192,4.744976521,14.47058868,-105.4925156,-63.54024124,-3.95768261,-0.71875,0.365234375,-0.440917969
366,1213823660,0.722066104,0.241759807,-0.61545068,0.203454629,32.80066299,6.304460526,2.153291464,117.5010986,-54.81571579,42.25776291,-0.701171875,0.357910156,-0.431640625
367,1213831993,0.719072878,0.248106107,-0.614275098,0.20986703,28.11128807,-10.94664383,4.903696537,129.9403992,-10.28883171,14.383214,-0.723632813,0.355957031,-0.449707031
368,1213840326,0.715091884,0.262156993,-0.609671414,0.219587594,15.43544865,-2.202624321,-3.579362869,247.3345337,4.414943695,-26.81208611,-0.707519531,0.333496094,-0.455566406
369,1213848659,0.708842874,0.278535366,-0.604838967,0.232659161,6.816801548,1.792342901,-7.501199722,307.2068176,-7.39634037,-7.370058537,-0.733886719,0.312011719,-0.4921875
370,1213856992,0.702285886,0.292387664,-0.60163027,0.243608803,-0.372053802,2.218818188,-1.891621351,260.9033813,-25.72692871,0.116462156,-0.715332031,0.283203125,-0.511230469
371,1213865325,0.696239591,0.301081061,-0.602299333,0.248669475,-0.621803105,9.371546745,2.597502232,147.3091736,-65.45219421,-0.151204288,-0.743164063,0.26953125,-0.539550781
372,1213873658,0.690302789,0.302651316,-0.608275175,0.248769045,4.4701581,13.72709656,-1.008169532,19.4029541,-111.3984528,32.90701675,-0.729980469,0.2578125,-0.535644531
373,1213881991,0.684496105,0.302537262,-0.615268171,0.247753605,8.649914742,9.547894478,-2.19978857,-9.919815063,-118.9833603,40.23907471,-0.762695313,0.265625,-0.533203125
374,1213890324,0.680278599,0.301227719,-0.621719897,0.24484241,10.94721889,-0.772365987,-1.674725771,-41.9974823,-104.1219177,24.88066292,-0.755371094,0.269042969,-0.508789063
375,1213898657,0.676726639,0.301265448,-0.626623511,0.242123276,11.41602421,-4.750982761,-4.06905365,-25.28074265,-87.82180023,6.466271877,-0.7890625,0.273925781,-0.498046875
376,1213906990,0.672811568,0.303545266,-0.629830658,0.241864949,11.47662544,-4.38373518,-2.161125183,23.9264164,-72.28603363,4.290572643,-0.777832031,0.272949219,-0.485839844
377,1213915323,0.668358564,0.307186067,-0.631975353,0.24401103,11.42058563,-0.932370663,-1.954584122,63.1402092,-61.75371552,12.03991413,-0.813964844,0.271484375,-0.486816406
378,1213923656,0.663660645,0.310232699,-0.634349287,0.246803075,11.20840549,2.01707077,-1.475930452,63.54066849,-61.09214401,24.95048904,-0.80078125,0.265136719,-0.482421875
379,1213931989,0.659125268,0.312021047,-0.637359619,0.248938054,10.92967606,1.777812243,-1.30904007,43.48881912,-64.1884079,32.0740242,-0.833496094,0.266601563,-0.493652344
380,1213940322,0.655062318,0.312733412,-0.640671432,0.250263482,10.40359116,-0.015758183,-1.042419553,23.56591415,-62.38741302,33.85842896,-0.817871094,0.260742188,-0.487304688
381,1213948655,0.651331365,0.313439012,-0.643695712,0.251356095,9.427075386,-0.832272947,-1.446476579,21.03148651,-58.03507233,29.42730331,-0.849609375,0.26953125,-0.4921875
382,1213956988,0.647170544,0.31547448,-0.646151066,0.253249586,9.308148384,0.702503622,-3.134845495,43.83625793,-57.69615173,23.87342072,-0.838378906,0.263183594,-0.491699219
383,1213965321,0.643211484,0.317526817,-0.648422241,0.254960209,10.00443459,2.575475693,-2.745872974,42.14253998,-55.30884171,20.58281326,-0.865722656,0.265136719,-0.503417969
384,1213973654,0.640116394,0.31793794,-0.651173115,0.255226612,9.707489967,4.012543201,-2.029149294,9.278923988,-52.19333267,21.51293182,-0.856933594,0.26171875,-0.499023438
385,1213981987,0.637578666,0.316489369,-0.654821277,0.254042596,8.705178261,5.146651268,-1.818774939,-25.65080833,-55.12137604,27.36060333,-0.888183594,0.268554688,-0.499511719
386,1213990320,0.635543704,0.313049942,-0.659605384,0.251008034,8.040703773,4.489453793,-1.216459751,-65.93812561,-61.43484879,32.27243805,-0.877441406,0.270996094,-0.483398438
387,1213998653,0.633743227,0.308401406,-0.665192723,0.246530473,8.463855743,2.760638714,-1.133940935,-93.36545563,-68.58551788,33.25601578,-0.904785156,0.284179688,-0.469726563
388,1214006986,0.63175112,0.303743035,-0.670914471,0.241878077,9.894427299,1.325716376,-1.391318798,-94.70066071,-71.99475098,33.09778595,-0.893554688,0.294921875,-0.4453125
389,1214015319,0.629247546,0.30014506,-0.676151931,0.23828505,11.28374767,-0.240439877,-1.962283015,-71.95928192,-71.8299942,32.14012909,-0.924316406,0.311523438,-0.43359375
390,1214023652,0.626593053,0.297597229,-0.680641711,0.235678703,11.99834156,-1.906039119,-1.607685447,-50.62826538,-65.90999603,28.39286613,-0.920898438,0.310058594,-0.416992188
391,1214031985,0.62377423,0.296581328,-0.684060991,0.234534562,11.36320019,-2.458022594,-2.058864594,-19.59706306,-57.42652893,22.73339653,-0.947753906,0.321777344,-0.406738281
392,1214040318,0.620687127,0.296858072,-0.686650574,0.234806418,10.10564327,-1.95509243,-1.786081076,8.579319954,-51.00222778,20.2630291,-0.936523438,0.317871094,-0.401855469
393,1214048651,0.617633402,0.297638834,-0.688838184,0.235462159,9.131893158,-1.286154032,-1.924098253,17.66993523,-47.54159927,16.97035408,-0.965332031,0.322753906,-0.390625
394,1214056984,0.614473224,0.298435241,-0.691135466,0.23599042,8.883180618,-1.060421467,-2.14603281,16.6738472,-49.82229996,16.57372093,-0.953613281,0.321289063,-0.388183594
395,1214065317,0.611563981,0.298605531,-0.693667531,0.23590298,9.367145538,-1.111583114,-1.870074868,3.74164629,-50.14928055,17.43008041,-0.983398438,0.327636719,-0.380859375
396,1214073650,0.609088719,0.298362345,-0.696237504,0.235041812,9.910635948,-0.573003232,-2.620004416,-9.023708344,-47.92548752,13.64584541,-0.972167969,0.321289063,-0.368164063
397,1214081983,0.607097268,0.297603041,-0.698805511,0.233530849,10.42491531,0.453740358,-2.525957346,-21.54374886,-44.51316452,11.5418644,-1.001953125,0.328613281,-0.356933594
398,1214090316,0.605400503,0.296040386,-0.701663792,0.231340915,10.38645458,0.531033158,-2.252419233,-36.91742325,-44.06150818,13.85763645,-0.986328125,0.330566406,-0.34765625
399,1214098649,0.603734672,0.294542074,-0.704504371,0.228962123,10.38429356,-0.050438657,-2.979135513,-38.26901245,-44.83063126,11.4712038,-1.013671875,0.3359375,-0.330566406
400,1214106982,0.601977408,0.29365474,-0.706929862,0.227246001,10.69963074,-0.678080976,-2.521096468,-25.10313034,-41.26492691,9.686542511,-1.006835938,0.334472656,-0.318847656
401,1214115315,0.600324929,0.293118536,-0.708978176,0.225924611,10.58995819,-0.927071929,-2.90887928,-17.60035896,-36.87118149,7.663495541,-1.028808594,0.339355469,-0.309082031
402,1214123648,0.598611116,0.293227464,-0.710546076,0.225404486,10.16821194,-1.183211327,-3.445080996,-2.725229025,-32.02981186,6.267463207,-1.017089844,0.340820313,-0.303710938
403,1214131981,0.596965253,0.293808103,-0.711634755,0.225579306,9.529787064,-0.889521122,-3.097076178,9.162359238,-26.32922173,5.21120739,-1.042480469,0.342285156,-0.291992188
404,1214140314,0.595269382,0.294735461,-0.712547779,0.225968003,8.762961388,-0.717049181,-3.68249774,14.8441906,-25.33108711,3.032996655,-1.029296875,0.338867188,-0.28515625
405,1214148647,0.593583643,0.29579699,-0.713323057,0.226568803,8.5701828,-0.438809663,-2.812176704,18.41199875,-23.91856384,2.851161003,-1.053710938,0.341796875,-0.271972656
406,1214156980,0.591877878,0.296998441,-0.71400851,0.227299273,8.778370857,-0.07081145,-2.452418089,21.18011093,-23.02124786,2.238263607,-1.039550781,0.333007813,-0.266601563
407,1214165313,0.590208411,0.298132628,-0.71473521,0.227871552,9.508237839,-0.478661209,-2.981831312,18.81058311,-23.70671082,1.662198663,-1.064941406,0.336425781,-0.257324219
408,1214173646,0.588635206,0.299303502,-0.715319932,0.228569537,10.50967979,-0.325478464,-2.659472942,20.3864212,-20.93463326,1.438560486,-1.055175781,0.330078125,-0.25390625
409,1214181979,0.587228,0.300360024,-0.71582073,0.229234442,10.75309467,0.293210447,-2.925827742,18.72244263,-18.67043495,1.427879333,-1.073242188,0.331542969,-0.244628906
410,1214190312,0.585918248,0.301271558,-0.716372669,0.229664803,10.73126984,0.855291605,-2.560448885,14.67162228,-18.36103439,0.858474255,-1.063964844,0.32421875,-0.2421875
411,1214198645,0.584768295,0.301955372,-0.716974556,0.229819536,10.30019188,1.162481546,-2.437494516,9.309254646,-17.88752747,0.590651631,-1.083984375,0.329589844,-0.230957031
412,1214206978,0.58370167,0.302505702,-0.717613697,0.229812443,9.708050728,0.77114898,-1.929006934,4.681938171,-17.37426949,0.812138021,-1.073730469,0.323730469,-0.22265625
413,1214215311,0.582718015,0.302867144,-0.718353212,0.229522258,9.234087944,0.343436509,-1.98042655,1.203139305,-18.18073273,0.24293825,-1.090820313,0.328613281,-0.21484375
414,1214223644,0.581645012,0.303270191,-0.719135642,0.229261339,9.057443619,-0.13186425,-1.532126665,0.527282,-19.18143082,0.865210712,-1.079101563,0.322753906,-0.207519531
415,1214231977,0.580518126,0.303615719,-0.719992816,0.228970155,9.141423225,-0.417728424,-1.33466959,1.293199062,-20.49446869,1.335949302,-1.097167969,0.323242188,-0.191894531
416,1214240310,0.579079211,0.30426237,-0.720873654,0.228983045,9.443275452,-0.396344274,-1.123043299,6.37609005,-23.21493149,2.216515779,-1.083496094,0.3203125,-0.185546875
417,1214248643,0.57749927,0.30489397,-0.721876681,0.228972986,9.860842705,-0.096395798,-0.520396829,7.794045925,-25.87180328,2.784128428,-1.104980469,0.320800781,-0.174316406
418,1214256976,0.575736582,0.305749238,-0.722867072,0.229147598,10.04121017,0.288847268,-0.066599861,10.81383801,-27.27940941,2.875135899,-1.087890625,0.315917969,-0.167480469
419,1214265309,0.573863208,0.306518614,-0.724021196,0.229175642,9.947747231,0.287162423,0.205485001,10.02151299,-30.25753021,3.283990622,-1.111816406,0.317382813,-0.157226563
420,1214273642,0.57168442,0.307540655,-0.725265563,0.229316071,9.806832314,0.35012722,0.061933305,12.8826313,-34.1087532,3.296287298,-1.09765625,0.312011719,-0.1484375
421,1214281975,0.569261312,0.30859977,-0.726693392,0.229401261,9.607694626,0.4971641,0.013083473,14.33250523,-38.56241989,3.742361069,-1.112304688,0.313476563,-0.137695313
422,1214290308,0.566737413,0.309611201,-0.728301287,0.229188144,9.529535294,1.010987163,0.102560043,9.73945713,-41.88074875,3.23537755,-1.104492188,0.308105469,-0.128417969
423,1214298641,0.564097703,0.310360283,-0.730238914,0.228520915,9.434216499,1.439629793,-0.32664597,3.698765993,-46.93164063,3.821792364,-1.119628906,0.310058594,-0.116699219
424,1214306974,0.561321199,0.310715526,-0.732611239,0.227279022,9.37204361,0.922842026,-0.492386222,-6.932381153,-52.69285965,5.875522137,-1.106445313,0.307128906,-0.107421875
425,1214315307,0.558580577,0.310751498,-0.735222042,0.225544453,9.196128845,1.018245339,-0.584308743,-14.23530674,-55.47987366,5.924986362,-1.118652344,0.30859375,-0.086425781
426,1214323640,0.555652559,0.310618281,-0.738137484,0.223427787,9.308630943,0.78597641,-1.149197817,-20.45209122,-60.63427353,6.848002434,-1.109863281,0.308105469,-0.078125
427,1214331973,0.552705348,0.310110152,-0.741336286,0.220837787,9.635708809,0.488478303,-1.426226735,-27.99988556,-64.05125427,8.04022789,-1.123046875,0.30859375,-0.059570313
428,1214340306,0.549713254,0.309551865,-0.744587183,0.21813634,9.74730587,0.513769031,-1.954821825,-30.14250565,-65.05023956,8.275856972,-1.110351563,0.311035156,-0.048339844
429,1214348639,0.546587586,0.308899462,-0.747974157,0.215310246,9.787572861,0.172277808,-2.645829916,-31.31179428,-67.87177277,9.065551758,-1.125976563,0.311035156,-0.02734375
430,1214356972,0.543405414,0.308297634,-0.751338065,0.212496832,9.873510361,0.16296038,-2.982023716,-30.9271183,-68.20328522,8.865811348,-1.111328125,0.309082031,-0.013183594
431,1214365305,0.540265918,0.307435364,-0.754777491,0.209541872,9.834295273,0.117924862,-3.290801287,-34.30316925,-68.33856201,10.53958321,-1.122558594,0.310058594,0.004394531
432,1214373638,0.537182987,0.305808902,-0.758438706,0.206607521,10.19778919,-1.926574349,-2.932935238,-40.87952805,-66.93708801,19.49440193,-1.111328125,0.309082031,0.017089844
433,1214381971,0.533281207,0.30509305,-0.761752009,0.205581799,10.17057323,-3.621974707,-4.787520885,-9.57999897,-67.64061737,24.86343002,-1.124511719,0.314453125,0.036132813
434,1214390304,0.529717028,0.305024564,-0.764522672,0.204611078,10.59537125,-3.004808903,-3.687687159,-4.400592327,-61.55636978,15.36138439,-1.112304688,0.313476563,0.046875
435,1214398637,0.527290642,0.304596633,-0.767031074,0.202112392,10.50764751,1.990220189,-3.229449511,-26.85630417,-53.24924469,3.600642681,-1.122558594,0.312988281,0.06640625
436,1214406970,0.524900317,0.303536862,-0.770017803,0.198539525,9.30017662,4.003973484,-3.572418213,-44.33640289,-58.9084816,4.399842262,-1.105957031,0.30859375,0.072753906
437,1214415303,0.521765828,0.302850872,-0.773157537,0.195626423,9.246775627,3.061502218,-3.401442289,-31.87499428,-66.33178711,7.855526924,-1.118164063,0.310058594,0.095703125
438,1214423636,0.518203318,0.302750587,-0.77619797,0.193195507,9.637397766,0.881694734,-3.895988941,-20.56643486,-69.56702423,5.861755848,-1.107421875,0.306152344,0.100585938
439,1214431969,0.514451861,0.303439468,-0.778831542,0.19153513,10.04493237,1.01078856,-3.707901478,-4.780814171,-67.74359894,1.700164676,-1.11328125,0.307617188,0.123046875
440,1214440302,0.51049751,0.304755867,-0.781200588,0.190374121,9.977660179,1.740817666,-3.195038795,6.396195412,-67.44729614,-1.967872739,-1.096679688,0.3046875,0.129882813
441,1214448635,0.50612396,0.30634892,-0.783635795,0.18948403,10.18001556,1.496522307,-3.254421473,12.98672104,-72.17217255,-1.75222671,-1.111328125,0.303710938,0.149902344
442,1214456968,0.501532555,0.308010459,-0.786120772,0.188704595,10.56082726,0.911603391,-2.767406464,15.65691948,-74.41040802,-1.010614634,-1.09375,0.298828125,0.156738281
443,1214465301,0.496851981,0.309792906,-0.788518429,0.188164264,10.59496498,0.91167599,-2.617834568,19.46687889,-74.24064636,-0.739307404,-1.104003906,0.295898438,0.177734375
444,1214473634,0.492008716,0.311502904,-0.791025579,0.187542707,10.57812214,0.667099655,-2.86294055,18.64174461,-76.75811005,0.348112166,-1.087402344,0.29296875,0.184082031
445,1214481967,0.487098783,0.313082784,-0.793625414,0.186743602,10.51388073,0.59615767,-2.934925079,15.73572159,-78.68773651,1.16200912,-1.094726563,0.290039063,0.201171875
446,1214490300,0.482139587,0.314442158,-0.79638207,0.185590163,10.20567989,0.553477883,-3.145092964,10.28400803,-81.10025787,1.997089505,-1.082519531,0.2890625,0.20703125
447,1214498633,0.4771806,0.315561742,-0.799291492,0.18399179,10.04765034,0.572629333,-3.159180641,3.347301483,-83.55950165,2.333458424,-1.088867188,0.290527344,0.226074219
448,1214506966,0.472168356,0.31649068,-0.802349985,0.182004511,9.827836037,0.644000828,-3.211149454,-2.461697817,-86.20558929,2.779687643,-1.074707031,0.286621094,0.233886719
449,1214515299,0.467096448,0.317161679,-0.805584371,0.179620937,9.609638214,0.487719953,-2.935979128,-8.551859856,-89.20813751,3.845326185,-1.081542969,0.286132813,0.258300781
450,1214523632,0.462062448,0.317647517,-0.808921218,0.176763505,9.556981087,0.541383564,-2.155225992,-15.61501503,-90.94871521,3.379093409,-1.064941406,0.280761719,0.264160156
451,1214531965,0.456710249,0.318127841,-0.812418938,0.173742458,9.996746063,-0.097308666,-2.415438175,-16.26545715,-96.31822205,3.704118252,-1.073242188,0.279296875,0.287597656
452,1214540298,0.450740844,0.319015145,-0.815952063,0.171127915,11.07410145,-0.85852474,-3.192871332,-6.835811138,-102.5442123,3.572027922,-1.058105469,0.275390625,0.295410156
453,1214548631,0.444537997,0.320391983,-0.819229066,0.169112489,12.0782547,0.490631044,-1.917705536,4.83110714,-102.185524,0.987168849,-1.061523438,0.280273438,0.31640625
454,1214556964,0.437970519,0.321963191,-0.822509706,0.167331904,12.4424448,1.95173502,-1.210609555,9.842432022,-105.6702881,1.429506302,-1.051757813,0.27734375,0.318847656
455,1214565297,0.43058598,0.323197633,-0.826287389,0.165496483,13.01882458,1.075143337,-1.575154662,10.0885334,-117.434639,8.656014442,-1.055664063,0.279296875,0.341308594
456,1214573630,0.422455966,0.324241132,-0.83034265,0.164104208,13.83101082,0.433717579,-1.241583109,16.18766975,-125.120369,16.79035378,-1.041992188,0.276855469,0.348144531
457,1214581963,0.413895696,0.325315952,-0.834386408,0.163278133,14.44081688,1.39428699,-1.056769252,25.26758003,-127.5387421,20.23254013,-1.044921875,0.283691406,0.37109375
458,1214590296,0.404829562,0.326077163,-0.838707924,0.162345901,15.22240067,2.359547138,-0.644158483,23.36820221,-134.7070618,26.08596992,-1.026855469,0.28125,0.380859375
459,1214598629,0.395723939,0.325680047,-0.843631029,0.160069391,16.04289436,3.685944319,1.451227903,0.783746302,-141.9409027,34.26628113,-1.027832031,0.291015625,0.396972656
460,1214606962,0.386956155,0.323866844,-0.849173665,0.155819491,16.21138954,5.501159668,3.227184534,-33.1268158,-147.180954,42.44153976,-1.008789063,0.29296875,0.413085938
461,1214615295,0.378580928,0.320378572,-0.855468273,0.149025396,16.13990593,6.003912449,4.29242897,-74.67770386,-154.2750854,50.51603699,-1.006835938,0.299316406,0.4453125
462,1214623628,0.370685041,0.315449983,-0.862234652,0.1401283,15.8264246,5.200197697,3.498520851,-110.3746414,-157.5599518,58.08937454,-0.986816406,0.302246094,0.459472656
463,1214631961,0.363215685,0.309223413,-0.869292021,0.129566267,14.59619808,3.444839478,2.157330513,-138.7668304,-158.5553589,64.95298004,-0.985351563,0.305664063,0.491699219
464,1214640294,0.3556045,0.302525669,-0.876320243,0.118688315,12.82646847,2.050630808,-0.851755559,-144.7163849,-160.8674011,69.79122162,-0.967285156,0.305664063,0.515625
465,1214648627,0.346629977,0.295605123,-0.883539081,0.108740948,10.92095375,0.205032989,-6.642903328,-128.7554932,-173.7380829,79.39276123,-0.963378906,0.310546875,0.554199219
466,1214656960,0.336608768,0.288565874,-0.890925705,0.098367237,9.810441017,-0.607788861,-8.922226906,-130.9894562,-189.1512146,81.78565216,-0.943359375,0.313964844,0.571777344
467,1214665293,0.326907575,0.28102994,-0.898279369,0.085136086,10.86319637,-0.654329956,-7.375325203,-169.0348053,-195.4093933,73.34427643,-0.932617188,0.317382813,0.612792969
468,1214673626,0.317866474,0.273071796,-0.905188859,0.070897289,13.26162148,-1.051687121,-8.29118824,-185.8801727,-189.0386658,72.29359436,-0.908203125,0.311035156,0.633789063
469,1214681959,0.309403956,0.26572603,-0.91112119,0.059310369,14.53657436,-2.0007267,-9.614478111,-150.9420929,-167.8173981,71.27552032,-0.8984375,0.310546875,0.674316406
470,1214690292,0.302352488,0.261416823,-0.915221214,0.051135328,13.00227451,-3.60066843,-8.292770386,-99.4469986,-132.789444,40.74331665,-0.881347656,0.30859375,0.685546875
471,1214698625,0.296352625,0.260634422,-0.917674184,0.046035122,10.98826694,-3.771270275,-7.187427998,-48.18787384,-103.6872025,1.634322286,-0.876953125,0.309570313,0.708496094
472,1214706958,0.291224897,0.261970431,-0.919025898,0.044177327,9.406048775,-2.529759169,-6.658069611,-1.712141991,-78.41880798,-15.35044193,-0.867675781,0.3046875,0.706054688
473,1214715291,0.286728591,0.262962222,-0.920161605,0.044055711,7.364182949,-0.624645412,-6.929924488,17.35356712,-62.6032486,-6.243442059,-0.874023438,0.309082031,0.710449219
474,1214723624,0.282505542,0.262667447,-0.92156589,0.043742027,5.469641685,0.961439729,-7.053359985,8.040527344,-60.65376663,11.1370182,-0.862792969,0.315917969,0.700195313
475,1214731957,0.278416723,0.261025339,-0.923347294,0.042193532,4.722931385,1.109837055,-6.529597759,-12.89413166,-63.53391647,23.64458466,-0.868652344,0.321777344,0.715332031
476,1214740290,0.274746746,0.258745879,-0.925199628,0.039632838,5.223435402,0.674611211,-5.879424572,-29.69905663,-62.20429611,27.85698891,-0.85546875,0.320800781,0.703613281
477,1214748623,0.271856368,0.256530464,-0.926777661,0.037010677,6.421828747,0.131727815,-5.612155437,-32.89546204,-51.05092621,25.42449188,-0.857910156,0.325683594,0.71484375
478,1214756956,0.270177186,0.255284548,-0.927653611,0.035963528,7.250903606,-0.887801409,-5.92866993,-13.08284378,-28.38014221,15.84681606,-0.849609375,0.328613281,0.702148438
479,1214765289,0.269777209,0.255641848,-0.927616239,0.037364751,7.134010315,-2.202805519,-6.227742672,20.03649902,-0.413567573,0.668980002,-0.850585938,0.332519531,0.708496094
480,1214773622,0.270594209,0.257534802,-0.926686347,0.041320939,6.276634693,-3.058597326,-6.005369663,54.53229523,26.14414215,-13.22354889,-0.850097656,0.3359375,0.685058594
481,1214781955,0.272391677,0.260273963,-0.925120175,0.04704541,5.012445927,-3.745933294,-6.267275333,77.07785034,47.25966263,-20.21900558,-0.861328125,0.341308594,0.682617188
482,1214790288,0.275035739,0.263172626,-0.923160017,0.05358699,3.863394022,-3.556237459,-6.989758492,85.30641937,61.83961105,-21.16444016,-0.860839844,0.346679688,0.649414063
483,1214798621,0.278426439,0.265803933,-0.920994401,0.059972245,3.178979635,-2.467115402,-7.385130405,79.7492981,72.21372986,-19.63467026,-0.875488281,0.357421875,0.640136719
484,1214806954,0.282645285,0.268185705,-0.918598056,0.06607613,2.778808594,-0.910643518,-6.987090588,72.38470459,82.27518463,-19.10299683,-0.881835938,0.360839844,0.603515625
485,1214815287,0.287511051,0.270185262,-0.916087091,0.071570389,2.762223959,0.043554455,-5.80226326,60.92477417,89.48033905,-17.63110542,-0.8984375,0.368652344,0.590332031
486,1214823620,0.293145895,0.272079408,-0.9132936,0.077029467,3.084554672,0.465908438,-5.958831787,57.46801758,99.78318787,-18.26826286,-0.89453125,0.370605469,0.556640625
487,1214831953,0.299546748,0.273900002,-0.910208046,0.082293332,3.371350288,0.209418699,-5.914461136,52.18141937,110.4031219,-20.01569557,-0.912109375,0.374511719,0.541503906
488,1214840286,0.30691883,0.275511593,-0.906780124,0.087433875,3.401227236,-0.236886606,-5.825242043,46.49129868,123.277771,-20.31271553,-0.908203125,0.375488281,0.508789063
489,1214848619,0.315050751,0.277099103,-0.902944922,0.093006663,3.037822962,-0.200621963,-5.979096413,49.40520096,136.6052704,-20.62853622,-0.925292969,0.380371094,0.488769531
490,1214856952,0.323894054,0.278640211,-0.898723364,0.098738462,2.755975246,-0.171841919,-6.06679678,48.95066833,147.3164063,-21.75561333,-0.924804688,0.377929688,0.451660156
491,1214865285,0.333349526,0.280112088,-0.894149363,0.104464926,2.691331863,0.149832755,-6.002927303,46.72098541,156.9863739,-23.09583473,-0.943847656,0.383789063,0.432128906
492,1214873618,0.343430072,0.281449109,-0.889230847,0.110051237,2.79531312,0.81249088,-5.616152763,42.45835876,165.4589539,-24.31039047,-0.943847656,0.383300781,0.392578125
493,1214881951,0.35418269,0.282545656,-0.884038091,0.114890873,3.094902992,1.372395635,-5.447290897,30.01376152,172.8943024,-26.97125626,-0.961914063,0.387695313,0.369628906
494,1214890284,0.365657926,0.283381134,-0.878578842,0.118696928,3.647623301,1.540287495,-5.408856392,13.78661156,178.9382477,-31.0037632,-0.955566406,0.382324219,0.331542969
495,1214898617,0.377881676,0.283890426,-0.87282747,0.121591128,4.324699879,1.38214457,-5.556720734,-1.308160424,186.8684845,-34.01273727,-0.975585938,0.381835938,0.309570313
496,1214906950,0.390874594,0.284034997,-0.866732359,0.123760603,4.724479675,0.865825176,-5.827414989,-14.32205868,195.2411804,-36.01738358,-0.967285156,0.375976563,0.274414063
497,1214915283,0.404324502,0.283878267,-0.860319197,0.125643313,4.967156887,0.302209139,-5.919912815,-20.61183167,202.2167358,-35.99928665,-0.986816406,0.377441406,0.250976563
498,1214923616,0.418205738,0.283466548,-0.853529871,0.127428412,5.229596615,-0.141222104,-6.045719624,-24.20237541,209.0571594,-35.72596359,-0.979980469,0.371582031,0.213378906
499,1214931949,0.432454646,0.282881945,-0.846314609,0.129278198,5.647525787,-0.372024983,-5.883557796,-25.14045143,216.7913971,-35.64163971,-0.998046875,0.372558594,0.185058594
500,1214940282,0.446954489,0.282268792,-0.838581324,0.131674156,6.097714424,-0.355382144,-6.337103367,-18.98760414,224.5649872,-34.51213455,-0.985839844,0.368164063,0.150878906
501,1214948615,0.461451471,0.281712741,-0.830368996,0.134864569,6.669966221,-0.498253554,-6.343215466,-8.61737442,230.8619232,-32.15245438,-1.001953125,0.370117188,0.123046875
502,1214956948,0.476075888,0.281364173,-0.821517527,0.138907611,7.155706882,-0.516874671,-6.314554214,3.148906231,238.9008179,-31.81617165,-0.983886719,0.364257813,0.079101563
503,1214965281,0.490701407,0.281293005,-0.812063694,0.143663943,7.720855236,-0.562786937,-6.387681007,14.14839077,245.4804993,-32.62092972,-0.995605469,0.368652344,0.047851563
504,1214973614,0.505227387,0.281651229,-0.801907003,0.149544239,8.314644814,-0.415607393,-7.083643436,31.39325142,252.2327728,-32.34788132,-0.975097656,0.362304688,0.008789063
505,1214981947,0.519668281,0.282387972,-0.791073084,0.156223178,8.769980431,-0.364822567,-7.045582294,44.53267288,258.6943359,-33.42646027,-0.986816406,0.362792969,-0.029296875
506,1214990280,0.534092486,0.283501029,-0.779528558,0.16342555,9.158067703,-0.515308678,-6.970899582,54.52801132,264.4541321,-36.49806213,-0.959472656,0.353515625,-0.07421875
507,1214998613,0.548221588,0.285225093,-0.76730746,0.17128709,9.574491501,-0.557411313,-7.124042988,68.73405457,267.8205872,-40.18693924,-0.96484375,0.352050781,-0.106933594
508,1215006946,0.562086582,0.28752622,-0.754398823,0.179639354,9.943312645,-0.234709308,-7.054879189,80.93946838,270.4406738,-44.64254761,-0.937988281,0.344238281,-0.151855469
509,1215015279,0.575759768,0.290174633,-0.740924239,0.187965527,10.35759735,0.340624124,-6.611009598,85.48838043,272.2085266,-50.21949768,-0.945800781,0.341308594,-0.192382813
510,1215023612,0.589428961,0.292905122,-0.726907551,0.195923373,10.69640827,1.020648122,-6.346466541,83.82496643,274.4607239,-56.11458206,-0.908203125,0.331542969,-0.238769531
511,1215031945,0.602933407,0.295595884,-0.712554455,0.203373984,10.71577549,1.584003925,-6.287959576,79.98138428,273.9205933,-60.75391006,-0.913574219,0.327636719,-0.278808594
512,1215040278,0.616276085,0.297834396,-0.698192298,0.209824771,10.73196983,2.000883818,-5.972794056,67.13978577,269.3193665,-64.17424011,-0.875488281,0.309082031,-0.313476563
513,1215048611,0.629482031,0.299175203,-0.684159875,0.214877218,10.9870882,2.453573942,-5.655319214,45.6889534,262.365387,-65.68071747,-0.875488281,0.306640625,-0.349121094
514,1215056944,0.642590344,0.299385756,-0.670610785,0.218466133,11.5019455,2.702221632,-5.784921169,21.13358879,254.3152924,-65.40575409,-0.840820313,0.294921875,-0.373046875
515,1215065277,0.655501723,0.298574835,-0.657596052,0.220768064,12.42848778,2.620689869,-6.219310284,-0.582628906,245.8110046,-64.6007843,-0.842773438,0.294921875,-0.403808594
516,1215073610,0.668134809,0.297123194,-0.644869566,0.222390905,13.41294479,2.126585484,-7.553229809,-12.20702457,239.6187134,-62.85175705,-0.801269531,0.283203125,-0.420898438
517,1215081943,0.680834711,0.29440099,-0.63264519,0.222604856,13.89934444,1.843685985,-6.314470768,-38.2106781,233.9580231,-62.72849274,-0.804199219,0.286132813,-0.445800781
518,1215090276,0.693307102,0.290431887,-0.621105254,0.221818328,13.53194809,2.447565794,-5.84142065,-59.74411011,225.1515961,-57.72883606,-0.763671875,0.28125,-0.45703125
519,1215098609,0.705019534,0.285388649,-0.610533297,0.220795363,12.47909355,2.816026449,-5.431237221,-71.94126129,211.9459381,-44.67506027,-0.765625,0.287597656,-0.474121094
520,1215106942,0.7158342,0.279619455,-0.600994229,0.21954684,11.47093391,1.622102022,-5.188465595,-80.47254181,195.5690308,-33.9331131,-0.727539063,0.287597656,-0.474121094
521,1215115275,0.725547791,0.273813277,-0.592277467,0.218665197,10.22512531,1.122505069,-4.87038517,-76.06708527,180.0397491,-23.58196068,-0.733398438,0.293945313,-0.489257813
522,1215123608,0.733725011,0.268485576,-0.584617853,0.218598709,8.420868874,1.013002038,-4.445795536,-62.04071808,158.5067596,-10.69129562,-0.69921875,0.293945313,-0.483886719
523,1215131941,0.73991102,0.264014184,-0.578507185,0.219449043,6.742940426,0.971602023,-3.448407888,-43.33869934,127.7787704,3.324281454,-0.709472656,0.302246094,-0.501953125
524,1215140274,0.743985474,0.259988129,-0.574718833,0.220432237,5.340051651,0.100058392,-2.689971685,-37.09588242,86.42759705,15.9917717,-0.677734375,0.302246094,-0.495117188
525,1215148607,0.745773137,0.256911993,-0.573506415,0.221154764,4.939208984,-0.673251808,-2.640022755,-29.06633759,38.25035477,21.90515518,-0.689453125,0.313964844,-0.510742188
526,1215156940,0.745335221,0.255729079,-0.574370861,0.22175844,5.521329403,-1.096796274,-4.179059982,-9.047668457,-6.813055515,19.91175842,-0.663085938,0.311523438,-0.5
527,1215165273,0.743109107,0.256636977,-0.576623499,0.222333297,6.322523117,-1.687122226,-5.786858082,14.21632385,-41.61139679,13.3864975,-0.682128906,0.3203125,-0.509277344
528,1215173606,0.739735782,0.25908944,-0.579762101,0.222576246,6.612043858,-1.531603813,-6.60692215,28.70133018,-65.6552124,4.420460701,-0.669433594,0.312988281,-0.502929688
529,1215181939,0.735506654,0.262349159,-0.583665371,0.222572342,6.849067211,-1.023099065,-6.972714424,35.66089249,-83.60530853,0.778716803,-0.694824219,0.319335938,-0.507324219
530,1215190272,0.730546951,0.265866876,-0.588308334,0.222508013,7.310763359,-0.859476328,-7.496884823,38.14758301,-97.91213226,3.024417162,-0.686523438,0.309570313,-0.498535156
531,1215198605,0.72497201,0.269138783,-0.593719065,0.222436979,7.87177515,-0.823657751,-7.231276512,35.53442001,-109.9233475,9.612021446,-0.714355469,0.314453125,-0.5
532,1215206938,0.719922125,0.270320535,-0.599824846,0.221019372,9.095288277,-0.261715144,-1.861371398,-0.382373482,-111.050972,14.22831345,-0.711425781,0.308105469,-0.487304688
533,1215215271,0.717968285,0.265530437,-0.606502533,0.214873046,13.24398613,2.597232342,12.73219395,-111.7436295,-90.70767975,9.378530502,-0.742675781,0.320800781,-0.482421875
534,1215223604,0.714935601,0.264163911,-0.611401737,0.212774664,22.95048141,6.949688435,4.092453957,-35.00261688,-77.33733368,17.48947525,-0.729492188,0.324707031,-0.461425781
535,1215231937,0.710662067,0.266141742,-0.61379683,0.217674673,31.47914505,-0.615216315,4.430845261,68.57087708,-47.65761566,52.70582962,-0.759765625,0.333007813,-0.473144531
536,1215240270,0.708044291,0.272258461,-0.612451315,0.222379953,21.21317482,-7.62582159,3.227908134,112.5009384,-10.12426853,-2.7622962,-0.741210938,0.321289063,-0.469726563
537,1215248603,0.703642488,0.284148484,-0.608859539,0.231166095,11.23795795,0.279500782,-3.732971191,216.6526489,-5.758396149,-14.62351894,-0.764160156,0.310546875,-0.490722656
538,1215256936,0.697848797,0.295998096,-0.606240511,0.240551919,4.533987999,0.951437771,-5.185283184,223.6214294,-24.25812149,-0.292604476,-0.749511719,0.283203125,-0.506835938
539,1215265269,0.69168514,0.306305438,-0.605229437,0.247884065,0.298839182,1.808955193,-1.124383688,187.890686,-46.12540436,0.662034571,-0.774902344,0.266601563,-0.52734375
540,1215273602,0.685505509,0.313435823,-0.607124627,0.251476407,1.716570139,7.629127026,-0.518632531,116.6922226,-78.70262146,3.782738209,-0.759277344,0.248046875,-0.530273438
541,1215281935,0.678872168,0.317095846,-0.612110198,0.25279361,6.355873585,10.71938133,-2.073733568,56.26254272,-109.5508423,26.24259949,-0.788574219,0.249511719,-0.537597656
542,1215290268,0.672952294,0.318997562,-0.617619991,0.252827436,9.782880783,5.87401104,-1.124179602,24.09480286,-107.7931213,28.85383034,-0.784667969,0.244140625,-0.5234375
543,1215298601,0.667850673,0.321312308,-0.622056723,0.25254643,11.41944313,0.017306617,-3.698373079,25.39974022,-93.85967255,14.89579105,-0.81640625,0.24609375,-0.515625
544,1215306934,0.66240412,0.325877964,-0.624682546,0.25455153,12.09819221,-2.598826885,-3.797949553,73.42558289,-77.75130463,9.865077972,-0.805664063,0.2421875,-0.499023438
545,1215315267,0.656856358,0.331555694,-0.625780702,0.25886181,11.40085316,-1.061400056,-1.702629328,109.1759872,-58.41144562,14.78533936,-0.837402344,0.237304688,-0.510253906
546,1215323600,0.651585162,0.336117119,-0.626983047,0.263353199,9.976126671,3.535785913,-1.693350911,99.00138092,-52.00040054,25.52809906,-0.826660156,0.227050781,-0.504882813
547,1215331933,0.647025406,0.337747842,-0.629814684,0.265741348,9.329665184,4.580886841,-0.819449365,45.4329567,-59.74498367,36.89460373,-0.858886719,0.225585938,-0.512207031
548,1215340266,0.643397748,0.336349517,-0.634365141,0.265498877,9.6233778,2.385070562,-0.225274593,-14.92729664,-67.93293762,44.30904007,-0.846679688,0.220703125,-0.508300781
549,1215348599,0.640632927,0.333078682,-0.63971293,0.263469011,9.614855766,-0.445587546,-0.72560674,-53.97249222,-69.07335663,45.35798264,-0.876953125,0.231933594,-0.508789063
550,1215356932,0.637549698,0.330617011,-0.644770443,0.261713952,9.477139473,-2.152986765,-2.883136988,-41.93001175,-70.80735779,40.51398087,-0.864746094,0.236816406,-0.493164063
551,1215365265,0.633711934,0.330262721,-0.648873925,0.261340499,10.25563145,-1.910022855,-3.653793097,-4.325242519,-70.61997223,32.28938675,-0.893066406,0.248046875,-0.495117188
552,1215373598,0.630036592,0.330974758,-0.651989102,0.261573315,10.73313522,-0.309050411,-2.943783045,13.17758751,-61.44454575,23.00201797,-0.8828125,0.245605469,-0.486328125
553,1215381931,0.626850486,0.3316122,-0.654693902,0.261664689,9.957391739,2.310728312,-2.185320616,10.52498531,-54.06802368,18.8025322,-0.912597656,0.250488281,-0.488769531
554,1215390264,0.624068439,0.331054032,-0.657982409,0.260770917,8.818951607,4.131269932,-2.073527813,-12.60685635,-55.44527435,22.28288269,-0.900878906,0.247558594,-0.483886719
555,1215398597,0.621540785,0.328803897,-0.662437439,0.258364648,8.438248634,3.640945196,-1.628738046,-46.14102173,-64.17895508,29.01102829,-0.934082031,0.258300781,-0.479492188
556,1215406930,0.619092047,0.325566471,-0.667539299,0.255192667,9.280190468,2.097122908,-1.269061089,-64.21983337,-68.72779846,34.12405396,-0.918945313,0.265136719,-0.454101563
557,1215415263,0.616585791,0.322468221,-0.672523022,0.252089977,10.36299801,1.188352585,-1.92171061,-61.71658707,-68.64596558,33.08886337,-0.948242188,0.276367188,-0.441894531
558,1215423596,0.613784254,0.32012254,-0.677093863,0.249669552,11.39215279,0.179870635,-2.372137547,-46.29314804,-67.23828125,31.1466713,-0.944335938,0.278320313,-0.422363281
559,1215431929,0.611032724,0.318324149,-0.681074262,0.247885585,11.46547127,-1.038934469,-2.271694422,-33.93085861,-61.08720398,28.6103096,-0.966796875,0.291503906,-0.412597656
560,1215440262,0.608196616,0.317531645,-0.684230745,0.247182846,10.51075077,-1.752657413,-2.54235673,-12.17886257,-53.42687225,25.00088882,-0.959960938,0.291015625,-0.400878906
561,1215448595,0.605023265,0.317951649,-0.686646223,0.247731924,9.579007149,-1.835580111,-2.642287016,13.7365551,-49.28271866,21.92985344,-0.986328125,0.294921875,-0.395019531
562,1215456928,0.601691842,0.319029301,-0.688720763,0.248699695,9.372067451,-2.0574646,-2.662929535,25.00997925,-48.11781693,18.27958679,-0.976074219,0.293945313,-0.390625
563,1215465261,0.598384738,0.320399344,-0.690517485,0.249932066,9.764191628,-1.718832135,-2.835878849,30.78211212,-45.65681839,16.3679657,-1.00390625,0.295410156,-0.381347656
564,1215473594,0.595567405,0.321461737,-0.692092776,0.250937432,9.998864174,-0.502086818,-2.727253675,24.6932869,-38.89091492,14.77318001,-0.9921875,0.289550781,-0.375
565,1215481927,0.593403995,0.321871221,-0.693750381,0.250960678,9.984835625,0.806925654,-3.153503656,6.830006599,-35.66630554,11.0415554,-1.018554688,0.294433594,-0.368652344
566,1215490260,0.591767848,0.321110845,-0.695925355,0.249773711,10.0611496,1.643091679,-2.957074165,-18.38805199,-35.93388367,12.7963171,-1.005859375,0.293945313,-0.356445313
567,1215498593,0.590234935,0.319431096,-0.698713958,0.247761622,10.25557995,1.058279514,-2.557347775,-36.32213974,-40.66957855,17.23546982,-1.030761719,0.30078125,-0.345214844
568,1215506926,0.588729262,0.317722499,-0.701534688,0.245559782,10.82770443,-0.335033953,-2.685536623,-38.61452103,-41.15087891,16.0286808,-1.019042969,0.301757813,-0.33203125
569,1215515259,0.587431967,0.316501617,-0.703883469,0.243513823,11.16706944,-0.881733418,-2.975013018,-32.47333908,-36.53891373,9.812617302,-1.044433594,0.308105469,-0.317871094
570,1215523592,0.586275935,0.315767646,-0.705643654,0.242154896,10.78616333,-0.649837613,-3.118519306,-20.53959084,-28.79916573,7.624251842,-1.029785156,0.306152344,-0.307617188
571,1215531925,0.585288942,0.315303564,-0.706968129,0.241282433,9.795470238,-0.577919245,-2.806361675,-12.92036724,-22.6908474,6.46182251,-1.057128906,0.314941406,-0.29296875
572,1215540258,0.584186196,0.315298498,-0.708030522,0.240845591,8.894869804,-0.174622834,-3.415518999,-3.625594139,-21.07870674,4.756552696,-1.043945313,0.307617188,-0.287597656
573,1215548591,0.582899153,0.315478861,-0.709054768,0.240714461,8.539984703,-0.439148992,-3.143885612,1.771750331,-22.11693001,5.850230217,-1.067871094,0.310546875,-0.278320313
574,1215556924,0.581605315,0.315594852,-0.710167289,0.240412384,8.78318119,-0.463990986,-2.651845694,-0.679853439,-23.15000534,5.510816097,-1.052734375,0.306640625,-0.2734375
575,1215565257,0.58022964,0.316006035,-0.711088538,0.240473375,9.394528389,0.228953153,-2.713400841,6.220432758,-22.08811378,4.973992348,-1.075195313,0.310058594,-0.259277344
576,1215573590,0.578803658,0.316244066,-0.712176323,0.240377143,10.0612011,0.117162414,-2.290856123,2.962685108,-23.74625397,6.296276569,-1.066894531,0.305175781,-0.251464844
577,1215581923,0.577575147,0.316231936,-0.713307142,0.239994809,10.62479305,-0.234139189,-2.414324045,-2.824176073,-22.84511757,6.008270264,-1.083496094,0.311035156,-0.239746094
578,1215590256,0.576461256,0.316325247,-0.714214981,0.239850178,10.48268127,0.174114078,-2.203608751,-0.850418508,-19.02436256,5.828175068,-1.0703125,0.306640625,-0.232421875
579,1215598589,0.57539475,0.316278011,-0.715213358,0.239497989,9.999371529,0.182516173,-2.137680769,-3.076578617,-19.95588112,5.487840176,-1.087890625,0.307617188,-0.226074219
580,1215606922,0.574392438,0.316201001,-0.71622026,0.238996655,9.710786819,0.344444036,-1.828887224,-6.531580925,-19.70158005,4.748842716,-1.076171875,0.305664063,-0.215332031
581,1215615255,0.573402941,0.315986842,-0.717315972,0.238368809,9.340098381,0.433965147,-1.600724101,-7.762858391,-20.61708641,5.121863365,-1.094238281,0.301269531,-0.201171875
582,1215623588,0.572275162,0.315808296,-0.718523324,0.237678006,9.187929153,0.176855385,-1.39895606,-9.370023727,-23.01319695,5.557587147,-1.083007813,0.302734375,-0.19140625
583,1215631921,0.571108341,0.315573871,-0.719821811,0.236865625,9.236566544,0.003048882,-1.303164721,-9.637565613,-24.69869423,5.330901623,-1.098632813,0.307128906,-0.176269531
584,1215640254,0.569880426,0.315316111,-0.721184134,0.236020893,9.330638885,-0.09196125,-0.779847741,-11.4087429,-25.63605118,6.100354671,-1.084960938,0.303222656,-0.168457031
585,1215648587,0.568487883,0.315132052,-0.722635388,0.235184476,9.363371849,-0.123208605,-0.929829419,-8.998849869,-28.40374565,6.039316177,-1.106445313,0.306152344,-0.154296875
586,1215656920,0.566875756,0.315083504,-0.72418189,0.234382898,9.48788166,-0.179495171,-0.752821982,-8.180990219,-31.38615036,6.389131546,-1.090820313,0.304199219,-0.149902344
587,1215665253,0.565132499,0.315085083,-0.725824177,0.233508676,9.571854591,0.091463454,-0.923958242,-7.022995472,-34.14770889,5.859429359,-1.108398438,0.303222656,-0.137207031
588,1215673586,0.563188851,0.315220594,-0.727533698,0.232700422,9.616307259,0.400636286,-0.913063347,-5.728117943,-36.58744431,6.237906933,-1.096679688,0.302246094,-0.127441406
589,1215681919,0.561117291,0.315324783,-0.729398668,0.231723309,9.635993004,0.537483275,-1.103457451,-6.546085358,-39.92867661,6.058300018,-1.114746094,0.302246094,-0.115234375
590,1215690252,0.558883369,0.315520078,-0.731352687,0.230694845,9.623748779,0.499074936,-1.3709867,-6.829764843,-42.54067612,5.887710094,-1.09765625,0.298339844,-0.108398438
591,1215698585,0.556622565,0.315647215,-0.733403683,0.22947222,9.66412735,0.430194825,-1.359931231,-8.605246544,-44.39968872,5.351860523,-1.114257813,0.299804688,-0.08984375
592,1215706918,0.55420959,0.31588009,-0.735524178,0.228201956,9.69738102,0.648386002,-1.753505707,-8.764081955,-46.79812241,4.964958191,-1.1015625,0.296386719,-0.083007813
593,1215715251,0.551705241,0.315858901,-0.737876594,0.226700723,9.703187943,0.386730283,-1.847353101,-12.438097,-49.90476608,6.804783821,-1.113769531,0.298828125,-0.062988281
594,1215723584,0.549110472,0.315090001,-0.740749598,0.224692017,9.97122097,-0.762384236,-1.851181746,-25.24527168,-54.44198227,13.31456757,-1.1015625,0.298828125,-0.055175781
595,1215731917,0.546178222,0.314242035,-0.743620157,0.223541856,10.53858185,-2.854226589,-2.343961716,-14.87190056,-54.10096359,21.40671349,-1.114746094,0.299316406,-0.034667969
596,1215740250,0.543185771,0.313970149,-0.746182799,0.222673759,10.78621769,-2.405939341,-2.771704435,-6.956743717,-52.75502396,16.64754486,-1.098632813,0.299316406,-0.030273438
597,1215748583,0.541026711,0.313711286,-0.748360395,0.220981032,11.25581932,1.201647878,-2.352423906,-17.23752022,-45.12615204,5.979566097,-1.114257813,0.300292969,-0.009277344
598,1215756916,0.539357662,0.312422425,-0.750903249,0.218244046,9.943466187,2.733482361,-2.54902792,-39.33579636,-43.98412704,9.033847809,-1.099609375,0.294921875,-0.000488281
599,1215765249,0.536988974,0.311215848,-0.753879189,0.21553272,9.152622223,1.917995214,-3.404872417,-36.29069519,-54.74943924,12.19845486,-1.111328125,0.297851563,0.016601563
600,1215773582,0.534374774,0.310149044,-0.756938815,0.212826848,9.546873093,0.914946318,-3.231839895,-34.68283844,-58.1174469,11.97128391,-1.096679688,0.294433594,0.024414063
601,1215781915,0.531871617,0.309458852,-0.759691834,0.210276663,9.780875206,1.434733033,-3.442281008,-29.58740997,-55.33398438,7.467101097,-1.106933594,0.296386719,0.045898438
602,1215790248,0.529273331,0.30910489,-0.762268484,0.208017319,9.829129219,1.687234402,-3.324635506,-23.49088669,-54.58515549,5.729960442,-1.091308594,0.294921875,0.0546875
603,1215798581,0.526560009,0.308694065,-0.764945865,0.205672145,9.712890625,0.944293261,-2.931743145,-24.28765488,-56.91323471,6.335433483,-1.101074219,0.294433594,0.073730469
604,1215806914,0.52361834,0.308676988,-0.767468989,0.203799948,9.831683159,0.872506261,-2.85751605,-14.95824623,-57.11679459,5.589824677,-1.090820313,0.290527344,0.080566406
605,1215815247,0.520381153,0.308925241,-0.769967318,0.202285856,9.956978798,0.531676471,-2.733412266,-8.041563034,-59.46906281,6.11130619,-1.102050781,0.290527344,0.100585938
606,1215823580,0.516988397,0.309366494,-0.772430718,0.200914204,10.16911793,0.426043153,-2.644303322,-4.343727589,-60.61355209,5.373384953,-1.084960938,0.287109375,0.106933594
607,1215831913,0.513468623,0.310067147,-0.774767399,0.199860305,10.13789845,0.721135437,-2.431711912,1.715659976,-60.61058044,4.685973644,-1.094726563,0.284179688,0.125976563
608,1215840246,0.509679139,0.310886651,-0.777196348,0.198853552,9.95541954,0.536627412,-2.466152191,4.094642639,-64.08827209,4.853825092,-1.081542969,0.28125,0.131347656
609,1215848579,0.505827308,0.311863393,-0.779561937,0.197897345,9.953638077,0.6289922,-2.115742922,6.035799503,-64.6964035,3.459535599,-1.087890625,0.284179688,0.147949219
610,1215856912,0.501823008,0.312946081,-0.781942785,0.196988612,9.825065613,0.821608305,-2.15595746,7.917839527,-66.3642807,3.157927513,-1.073730469,0.278808594,0.154785156
611,1215865245,0.497659475,0.313925236,-0.784488678,0.195867851,9.730024338,0.501025677,-2.190460682,5.137841702,-70.00580597,3.925847292,-1.084472656,0.279296875,0.171386719
612,1215873578,0.493267894,0.314997345,-0.787116945,0.194707632,9.556698799,0.267755121,-2.744748354,6.17120266,-73.30626678,3.63310194,-1.067382813,0.270996094,0.176757813
613,1215881911,0.488834977,0.316012472,-0.789821267,0.193286121,9.520066261,0.262874156,-2.402137518,2.871741533,-75.39240265,2.908113718,-1.075683594,0.274902344,0.19921875
614,1215890244,0.484163433,0.31717068,-0.792564511,0.191913262,9.569120407,0.685357749,-3.067680836,5.078113556,-78.28661346,2.633400917,-1.065429688,0.268554688,0.205078125
615,1215898577,0.47939077,0.318041056,-0.79553771,0.190143868,9.593478203,0.194151223,-2.999799252,-1.109307885,-82.0192337,4.251898289,-1.073242188,0.26953125,0.221679688
616,1215906910,0.474547952,0.318966001,-0.798484445,0.188382655,9.716754913,0.328418553,-3.513769627,-0.264724702,-82.60173035,3.811023712,-1.05859375,0.26953125,0.228515625
617,1215915243,0.469515204,0.319878578,-0.80149889,0.186637178,9.605727196,0.367716789,-4.029839993,0.465451986,-85.14355469,4.802660942,-1.063964844,0.270507813,0.247070313
618,1215923576,0.464504778,0.320656121,-0.804566205,0.184631988,9.723530769,0.522633195,-3.865482092,-3.480689764,-85.93235016,4.824921131,-1.050292969,0.264648438,0.255371094
619,1215931909,0.4595595,0.321343899,-0.807601392,0.182549044,9.613931656,1.353871226,-3.787910938,-5.140937805,-85.22423553,4.980578899,-1.052734375,0.265136719,0.274902344
620,1215940242,0.45445022,0.321815789,-0.81087023,0.179998621,9.661488533,1.108835936,-4.023796082,-11.53732395,-89.95188141,5.902830124,-1.038574219,0.258300781,0.28125
621,1215948575,0.449460447,0.322189033,-0.81413883,0.177081853,10.18451118,1.160230398,-3.241142988,-16.78938293,-90.08818054,4.381359577,-1.040527344,0.263671875,0.303710938
622,1215956908,0.444309771,0.322683275,-0.81738025,0.174225152,10.69224358,0.811781704,-2.970532179,-14.5613184,-91.66934967,3.712311983,-1.030273438,0.258789063,0.313964844
623,1215965241,0.43862772,0.323575407,-0.820619345,0.171723694,11.67189026,0.092845373,-3.814143181,-5.801647186,-97.08737946,2.629566669,-1.031738281,0.258789063,0.333984375
624,1215973574,0.432905674,0.325049639,-0.82345283,0.169887021,12.47657681,1.125605941,-2.545078516,6.379364491,-93.44418335,-1.592628598,-1.020996094,0.258300781,0.341308594
625,1215981907,0.42699483,0.326719195,-0.82616657,0.16846244,12.16325474,2.227514505,-1.475601196,13.30066872,-93.54745483,-1.491503,-1.026367188,0.256347656,0.358886719
626,1215990240,0.420308143,0.328199059,-0.829312146,0.166938022,12.1676836,1.300482392,-1.688470364,13.57369518,-104.8722839,3.863267422,-1.017089844,0.252441406,0.364257813
627,1215998573,0.413163543,0.329672068,-0.832552612,0.165737435,12.73383236,1.083149195,-0.883077919,19.03907204,-109.2012482,7.242797375,-1.017578125,0.25390625,0.378417969
628,1216006906,0.405640483,0.331265599,-0.83576113,0.164992452,13.06692028,1.764232039,0.035354137,26.77462387,-111.5665207,9.227441788,-1.006347656,0.253417969,0.381347656
629,1216015239,0.397502452,0.332703233,-0.839209199,0.164403424,13.77689075,2.066474915,0.07504119,29.90984917,-118.9007111,14.3179493,-1.004882813,0.259277344,0.401855469
630,1216023572,0.389149845,0.333437175,-0.843039513,0.163299963,14.55026054,2.486643076,1.32451582,20.29768753,-124.285759,21.92685318,-0.991210938,0.262695313,0.404785156
631,1216031905,0.380892634,0.333384901,-0.847181499,0.161428809,14.80737782,4.089740276,2.310050011,5.998776436,-126.5466309,28.08288002,-0.992675781,0.266113281,0.429199219
632,1216040238,0.372592777,0.332454801,-0.851797879,0.158396214,14.90656948,5.111014366,2.146703959,-13.25348949,-133.0144958,34.86362076,-0.974609375,0.270996094,0.432617188
633,1216048571,0.364383817,0.330366164,-0.857012987,0.153661489,14.90453053,5.269881248,1.352388024,-40.58204651,-140.1670685,41.88500595,-0.974609375,0.276855469,0.4609375
634,1216056904,0.356237739,0.327223003,-0.862732649,0.14735198,13.74454308,4.80436182,-0.725656509,-65.69232941,-147.0802002,48.67482376,-0.961425781,0.280273438,0.47265625
635,1216065237,0.347529262,0.322978914,-0.869178772,0.139415652,11.94926739,3.384342194,-3.471434116,-89.41370392,-162.2035217,58.08329391,-0.956542969,0.288574219,0.506347656
636,1216073570,0.338131785,0.31740129,-0.876464009,0.129362285,11.38337612,2.239734888,-5.257067204,-119.5328217,-181.5696411,69.06092834,-0.942871094,0.290527344,0.522949219
637,1216081903,0.328894109,0.310326576,-0.884302914,0.116340309,12.60464287,1.366907477,-5.109552383,-164.0701294,-192.2431641,75.32667542,-0.932617188,0.293457031,0.565429688
638,1216090236,0.320063502,0.302530587,-0.891890526,0.102793522,15.01990891,1.225139141,-4.931578159,-174.9285431,-187.5574951,80.10398102,-0.910644531,0.293457031,0.586914063
639,1216098569,0.311905622,0.294896454,-0.898624241,0.090697847,16.24638367,-0.715359032,-5.928089142,-158.1291199,-169.4227448,79.89839172,-0.905761719,0.294921875,0.630371094
640,1216106902,0.305057645,0.289470673,-0.903683245,0.080645382,15.16544628,-3.288534164,-6.301443577,-126.5023193,-140.887146,53.03086853,-0.885742188,0.293945313,0.645507813
641,1216115235,0.299862772,0.286873877,-0.906983078,0.071888655,12.75781155,-4.183399677,-5.697257519,-103.2851334,-110.5702057,14.38667202,-0.884765625,0.291015625,0.674316406
642,1216123568,0.296293885,0.285764724,-0.909120679,0.063628383,10.77069378,-3.657115221,-4.214104176,-96.706604,-85.48764038,-7.424856186,-0.873046875,0.286132813,0.67578125
643,1216131901,0.293505907,0.284859538,-0.910732329,0.057239603,8.881117821,-1.955076218,-5.027438641,-74.60366058,-65.92762756,-5.987406254,-0.877929688,0.284179688,0.698242188
644,1216140234,0.290073603,0.284300953,-0.91217047,0.054552663,6.84661293,-0.511153698,-6.810892105,-24.7574501,-59.61660385,5.435091496,-0.873535156,0.284667969,0.696289063
645,1216148567,0.286068022,0.2838808,-0.913580835,0.054292072,5.586435795,-1.077495933,-7.471905231,9.068991661,-56.765625,12.70479107,-0.877441406,0.284667969,0.704589844
646,1216156900,0.28205964,0.283668607,-0.914851964,0.054962277,5.531546593,-2.086448908,-8.799473763,21.10203171,-53.3421936,14.24039268,-0.872070313,0.291992188,0.693847656
647,1216165233,0.278351814,0.283197612,-0.916041195,0.056465127,5.841875553,-2.111791372,-9.114555359,30.05604553,-45.23281479,19.15247154,-0.872558594,0.301757813,0.702636719
648,1216173566,0.275289267,0.281899422,-0.91729641,0.057589468,5.843261719,-2.040765762,-7.585518837,19.6206131,-38.67881012,27.88987923,-0.864746094,0.3046875,0.688476563
649,1216181899,0.272725582,0.280009687,-0.918625653,0.057818759,6.207729816,-1.519776464,-6.055973053,4.035159588,-35.17635727,31.84292221,-0.87109375,0.317382813,0.6953125
650,1216190232,0.271099001,0.278260738,-0.919617295,0.058146939,7.175867081,-0.702283442,-5.035864353,2.514667511,-22.29375839,28.39380646,-0.864746094,0.323242188,0.683105469
651,1216198565,0.270993352,0.277499855,-0.919768095,0.059863929,7.716536999,-0.261493951,-5.141981125,18.57180595,5.087720394,16.63854408,-0.874023438,0.327636719,0.68359375
652,1216206898,0.272311658,0.278078526,-0.918952823,0.063598439,7.018791676,-0.429465085,-6.284183502,44.47402573,32.79098892,2.356913328,-0.870117188,0.333984375,0.662597656
653,1216215231,0.274672955,0.279515654,-0.917487085,0.068144999,5.695818901,-1.25870502,-6.556647301,54.50017166,51.26626205,-8.850734711,-0.880859375,0.344238281,0.65625
654,1216223564,0.278277487,0.281076461,-0.915575147,0.072665542,4.540017128,-1.731057167,-6.729962349,50.30810547,67.89557648,-13.38559914,-0.885742188,0.348632813,0.624023438
655,1216231897,0.282675952,0.2825526,-0.913386643,0.077354252,3.304367781,-1.562346339,-7.606032372,49.27986526,80.21185303,-13.54148579,-0.901367188,0.354003906,0.618652344
656,1216240230,0.287602156,0.283436984,-0.911256015,0.081001826,2.617932558,-1.423603773,-6.688451767,31.81078339,82.67069244,-10.4883604,-0.903320313,0.355957031,0.583984375
657,1216248563,0.293326855,0.283831984,-0.909044385,0.083888955,2.964692354,-1.055715322,-6.617994308,17.3027401,91.10752869,-8.573354721,-0.916503906,0.359375,0.579101563
658,1216256896,0.300131828,0.283835471,-0.906547785,0.086773299,3.391548634,-0.635413051,-6.394481659,11.8139534,105.6863861,-6.046684265,-0.918945313,0.360351563,0.545410156
659,1216265229,0.307744622,0.283545911,-0.903820574,0.089462847,3.738604307,-0.872596085,-5.446307659,5.28503561,116.8144836,-5.064840317,-0.933105469,0.366210938,0.53515625
660,1216273562,0.316464663,0.283279508,-0.900589228,0.092424691,4.061271667,-1.180220842,-5.879730225,5.079369545,133.2377472,-7.526092529,-0.935058594,0.365234375,0.502441406
661,1216281895,0.325941563,0.283073455,-0.8968876,0.096045725,3.912580013,-1.267653704,-5.430438519,11.14680004,147.6537628,-8.199197769,-0.951660156,0.369140625,0.487304688
662,1216290228,0.33610785,0.283007115,-0.892650306,0.100571387,3.625213623,-1.170419812,-5.049583912,20.95745468,161.3976898,-8.867034912,-0.954101563,0.368652344,0.452148438
663,1216298561,0.346794426,0.283133358,-0.887891531,0.105916567,3.515777111,-1.195133924,-5.290523052,30.60081482,173.615799,-10.18854523,-0.969726563,0.372558594,0.426757813
664,1216306894,0.357929498,0.283509254,-0.882568061,0.112173207,3.56075716,-0.934062123,-5.695849419,41.99565125,184.4786377,-11.74583054,-0.967773438,0.373535156,0.38671875
665,1216315227,0.369548529,0.284094185,-0.876676083,0.119011089,3.649976969,-0.318478048,-6.378786087,49.07089233,195.5888672,-14.38368034,-0.989257813,0.378417969,0.360839844
666,1216323560,0.381997854,0.284412861,-0.870354474,0.125182301,3.781665087,0.30300045,-5.900320053,37.13527298,205.1304779,-17.59988594,-0.981933594,0.379882813,0.311523438
667,1216331893,0.395414114,0.284139365,-0.863749266,0.129808649,3.908052206,0.893247843,-5.683374882,12.24442387,213.6560364,-21.39903069,-0.997558594,0.383300781,0.28515625
668,1216340226,0.409442395,0.28326413,-0.856994867,0.132960632,4.111363411,1.217748284,-5.637057304,-10.66826534,216.5794373,-23.94511604,-0.991210938,0.376464844,0.243652344
669,1216348559,0.423854917,0.281996727,-0.850036919,0.135138422,4.731611729,0.826144159,-5.905416965,-25.48043823,219.6465302,-26.30317688,-1.006347656,0.383300781,0.216308594
670,1216356892,0.438701421,0.280368447,-0.842720389,0.136957765,5.653559208,0.060425397,-5.647176266,-32.78449249,225.6350403,-26.37030792,-0.997070313,0.375488281,0.178222656
671,1216365225,0.453861892,0.278594255,-0.834882915,0.13916032,6.639366627,-1.016960979,-6.266174793,-29.45875931,234.625824,-24.96779823,-1.010253906,0.380371094,0.152832031
672,1216373558,0.469268829,0.277259976,-0.826162219,0.142723754,7.103682518,-1.606615543,-6.73830843,-10.33282948,246.8972473,-25.37934494,-0.9921875,0.375,0.109375
673,1216381891,0.484805375,0.276584178,-0.816543162,0.147386581,7.157921791,-1.882206202,-6.914110661,7.666960716,257.5131836,-29.4466629,-1.0078125,0.375976563,0.08203125
674,1216390224,0.500322819,0.276689559,-0.806009591,0.153195962,7.420769215,-1.574862957,-7.264646053,27.68549347,265.7429504,-34.02046204,-0.985839844,0.371582031,0.032226563
675,1216398557,0.51581943,0.277356356,-0.794638336,0.159856752,7.877626419,-1.089085937,-7.020967484,42.82189178,273.765564,-37.52297974,-1.000976563,0.373535156,-0.005371094
676,1216406890,0.53127563,0.278573483,-0.782408774,0.167271733,8.302473068,-0.724222898,-7.114496708,57.01558685,280.6709595,-41.38448715,-0.974121094,0.365234375,-0.0546875
677,1216415223,0.546473444,0.280359477,-0.76944828,0.175257415,8.936491966,-0.409458935,-7.248319149,69.97840881,284.5195923,-45.53153992,-0.981933594,0.365722656,-0.09765625
678,1216423556,0.56154424,0.282539278,-0.755738437,0.183573753,9.688249588,-0.037879482,-7.209935188,78.74205017,288.7459717,-49.80664444,-0.949707031,0.354980469,-0.148925781
679,1216431889,0.576462388,0.285018384,-0.741369903,0.191902786,10.28916168,0.648145139,-6.931792259,83.43213654,291.9292297,-54.98179626,-0.956542969,0.353027344,-0.194824219
680,1216440222,0.591301322,0.287482828,-0.726480544,0.199856699,10.75890541,1.468634725,-6.598992348,81.19159698,293.457428,-59.64483261,-0.920898438,0.339355469,-0.238769531
681,1216448555,0.60607028,0.289688796,-0.711272895,0.207003787,11.20060921,2.318017006,-6.527192593,72.16524506,293.2272034,-64.68417358,-0.924316406,0.334960938,-0.279785156
682,1216456888,0.620786548,0.29123044,-0.696043611,0.212914467,11.73734379,2.720141172,-6.304137707,54.82468033,289.5253906,-68.42288208,-0.883300781,0.321289063,-0.317382813
683,1216465221,0.635408461,0.291974574,-0.680949807,0.217519462,12.57075214,2.851920843,-6.59064579,35.47810745,284.9031067,-71.1211853,-0.882324219,0.314941406,-0.354980469
684,1216473554,0.649863839,0.292093426,-0.665945292,0.221079037,13.63125324,3.014033079,-7.850365639,20.650383,279.9299927,-73.5196228,-0.844726563,0.303710938,-0.381347656
685,1216481887,0.664553702,0.290708363,-0.651418209,0.222513124,14.69293308,3.382817984,-6.145842552,-14.67455196,274.1507263,-77.56159973,-0.840820313,0.301757813,-0.413574219
686,1216490220,0.678985,0.287927032,-0.637572825,0.222662702,14.7316103,3.98516798,-6.139428139,-39.96965408,264.4770813,-73.2378006,-0.799316406,0.295410156,-0.4296875
