PacketCounter,SampleTimeFine,Quat_W,Quat_X,Quat_Y,Quat_Z,Acc_X,Acc_Y,Acc_Z,Gyr_X,Gyr_Y,Gyr_Z,Mag_X,Mag_Y,Mag_Z
0,1210773782,0.657099664,-0.308672637,-0.342160255,-0.596547604,0,0,0,0,0,0,-1.321777344,1.498535156,-0.927246094
1,1210782115,0.668312013,-0.300768524,-0.3273727,-0.596427619,11.3598423,-1.767131686,7.553445816,-2.302978754,250.9039764,118.6725693,-1.254882813,1.516113281,-0.951660156
2,1210790448,0.679420292,-0.292893767,-0.312352151,-0.595851243,11.90511894,-1.212692857,8.296811104,-2.381619453,249.1355591,122.2901154,-1.159667969,1.524414063,-0.961914063
3,1210798781,0.690140128,-0.284900486,-0.297206193,-0.595153689,12.62356567,-0.72993952,8.724078178,-3.823287725,250.4346771,121.0544357,-1.086914063,1.538085938,-0.978515625
4,1210807114,0.700412929,-0.27662769,-0.28156364,-0.594661355,12.9130497,0.077617005,8.713436127,-7.330917358,255.1045074,115.4526138,-0.993652344,1.531738281,-0.973144531
5,1210815447,0.709897399,-0.268196225,-0.265936822,-0.594470859,12.63547134,0.601082623,8.652270317,-10.33629894,255.6538544,106.2220688,-0.925292969,1.53515625,-0.982910156
6,1210823780,0.718613148,-0.259689242,-0.250513434,-0.594475329,12.61014748,0.637107074,8.656488419,-10.97957516,250.9075165,96.24760437,-0.8359375,1.522460938,-0.966308594
7,1210832113,0.72643292,-0.251104265,-0.235455304,-0.594814181,12.86789131,1.536760807,8.413513184,-12.07894135,247.3276825,84.80516052,-0.776367188,1.518066406,-0.967773438
8,1210840446,0.73335284,-0.24271819,-0.2206579,-0.595476985,12.88329887,2.599272966,8.30122757,-15.57568169,240.0528412,73.2522583,-0.697753906,1.497070313,-0.943847656
9,1210848779,0.739382625,-0.234769553,-0.206633851,-0.596238613,12.97052479,2.642264605,8.289097786,-17.43893242,227.5451202,64.409729,-0.64453125,1.493652344,-0.928222656
10,1210857112,0.744674742,-0.227148965,-0.193239748,-0.597095191,13.20658588,2.340983152,8.368155479,-17.75982094,215.4773102,55.6638298,-0.580078125,1.471191406,-0.897460938
11,1210865445,0.74924475,-0.219811484,-0.180625901,-0.598072946,13.78432655,2.411607981,8.433940887,-17.33090973,204.8010101,47.43869019,-0.532226563,1.464355469,-0.874023438
12,1210873778,0.753263116,-0.212720662,-0.168447137,-0.599142253,14.62251186,2.675074339,8.232354164,-17.70808411,196.101532,40.69451523,-0.479492188,1.437988281,-0.83984375
13,1210882111,0.756709635,-0.205859244,-0.156758353,-0.600367069,15.0645256,2.427106142,7.672292709,-18.5608654,189.3598022,34.03353882,-0.448242188,1.432128906,-0.812988281
14,1210890444,0.75945878,-0.199427009,-0.145283833,-0.601951063,14.78585911,2.408743858,6.845299244,-23.55487251,182.1146698,24.36549568,-0.407226563,1.405273438,-0.7734375
15,1210898777,0.761262476,-0.193984494,-0.134282365,-0.604002416,15.17676544,3.120980024,5.424005032,-33.9534874,169.3587036,12.82460499,-0.390625,1.401855469,-0.739257813
16,1210907110,0.762197375,-0.18954733,-0.123710513,-0.60648489,16.08622932,3.14646697,3.259101868,-43.59834671,155.2134094,1.378448844,-0.359375,1.37890625,-0.701171875
17,1210915443,0.762243509,-0.185921639,-0.113639921,-0.60951221,15.97668743,2.543217897,1.302938819,-51.59181595,143.9416962,-11.24111557,-0.356933594,1.380371094,-0.662597656
18,1210923776,0.761515021,-0.183377534,-0.104452193,-0.612828434,15.59436512,2.263842821,0.011087298,-57.56402206,124.4878769,-21.69180679,-0.335449219,1.362304688,-0.625488281
19,1210932109,0.760203838,-0.182238668,-0.09647727,-0.616094768,16.01366615,2.767818689,-1.231677413,-63.85396576,99.64141846,-26.7583847,-0.345214844,1.369140625,-0.598144531
20,1210940442,0.75854677,-0.182376891,-0.089714125,-0.619110703,16.36670113,3.287320375,-3.023239613,-67.09623718,74.61709595,-28.71852112,-0.336914063,1.348632813,-0.560546875
21,1210948775,0.756729662,-0.183643878,-0.084489621,-0.621689558,15.98621082,3.113198757,-4.228313923,-66.00984192,48.11333466,-27.68230057,-0.346679688,1.354003906,-0.533203125
22,1210957108,0.754879832,-0.185811073,-0.08130382,-0.623715937,16.07785225,2.485560179,-4.583377838,-57.04644775,17.55205536,-26.57140923,-0.344726563,1.338867188,-0.515625
23,1210965441,0.753216147,-0.188157946,-0.080186434,-0.625166714,17.25269508,1.815270782,-4.677960873,-40.39329529,-6.506720543,-23.82866478,-0.359375,1.351074219,-0.5078125
24,1210973774,0.751853526,-0.189773545,-0.080416463,-0.626287997,17.54633522,1.132974267,-4.698180676,-19.77853584,-14.67960835,-22.31501579,-0.352539063,1.338867188,-0.502441406
25,1210982107,0.750711381,-0.19058302,-0.081596099,-0.627259135,15.6608181,0.553256929,-3.899651527,-2.838597298,-17.71894264,-22.03865623,-0.357421875,1.358886719,-0.513183594
26,1210990440,0.749777138,-0.191632986,-0.084130019,-0.627721846,13.73932648,0.143522561,-2.553868771,7.776401997,-34.60557175,-18.41986084,-0.350585938,1.358886719,-0.522460938
27,1210998773,0.749274433,-0.193177581,-0.088305138,-0.62727505,13.76698303,-0.486592472,-1.504591346,18.73342896,-57.96315002,-8.92728138,-0.354492188,1.3828125,-0.537597656
28,1211007106,0.749327123,-0.194576964,-0.093601167,-0.626010358,14.27010536,-0.810955346,-1.374265194,32.66162872,-69.28170013,1.023152947,-0.352539063,1.378417969,-0.556640625
29,1211015439,0.749836266,-0.195388541,-0.099610262,-0.624218047,13.83503246,-0.576192558,-0.629657984,46.4625473,-72.87055969,7.838226318,-0.35546875,1.3984375,-0.579101563
30,1211023772,0.75054431,-0.196364641,-0.10602051,-0.622000754,11.02363873,0.476474047,3.777665615,49.62895203,-78.62956238,12.96962547,-0.350585938,1.39453125,-0.603515625
31,1211032105,0.751249254,-0.198701352,-0.112530261,-0.619258165,1.688182592,1.225024223,15.24850464,36.89215088,-93.37759399,20.18595695,-0.359863281,1.416992188,-0.6328125
32,1211040438,0.748289883,-0.204199731,-0.121299505,-0.619396806,-10.83989048,-4.077895641,26.29533005,9.291984558,-140.6362457,-42.16598129,-0.359375,1.415527344,-0.657226563
33,1211048771,0.744991064,-0.207539842,-0.130911604,-0.620305419,-1.577799797,-9.857707024,20.86320305,36.15048599,-130.1352234,-58.84757996,-0.393554688,1.44140625,-0.685058594
34,1211057104,0.746523082,-0.207524508,-0.139444694,-0.616598248,9.709990501,-6.347830772,8.236562729,83.67927551,-94.31710815,26.57109833,-0.394042969,1.43359375,-0.709472656
35,1211065437,0.746641159,-0.205830395,-0.148532376,-0.614898682,10.5121212,2.441321611,0.702558041,97.47064972,-83.37652588,-10.7141037,-0.412597656,1.443847656,-0.743164063
36,1211073770,0.745881498,-0.209507942,-0.157957718,-0.612223625,13.18569946,7.014520645,3.096637011,44.99420166,-136.2510223,1.700034738,-0.419921875,1.440429688,-0.770996094
37,1211082103,0.747062683,-0.214258671,-0.166977867,-0.606720686,14.57703114,1.482799292,8.662220955,41.996315,-145.6303558,50.74254227,-0.432617188,1.461914063,-0.805664063
38,1211090436,0.747429729,-0.214937136,-0.174327329,-0.603955269,8.626993179,-4.55129528,12.29764557,61.46354675,-87.59924316,11.24436665,-0.437011719,1.455566406,-0.84375
39,1211098769,0.746938586,-0.212408379,-0.180697098,-0.603585184,2.517026186,0.506624341,11.69957924,77.75654602,-46.56345749,-25.14259148,-0.462402344,1.470214844,-0.875976563
40,1211107102,0.746312618,-0.211999118,-0.18723233,-0.60251075,2.295274734,6.535552025,9.133042336,58.96407318,-67.49460602,-14.41530895,-0.470214844,1.462890625,-0.884765625
41,1211115435,0.745502174,-0.213947237,-0.194092318,-0.60065186,6.81471014,5.449623108,9.019067764,38.69412231,-93.87510681,-2.599048853,-0.502441406,1.470703125,-0.906738281
42,1211123768,0.745266497,-0.215465486,-0.199437231,-0.598647177,11.74911404,0.455611378,10.27692699,32.86254883,-72.99272156,6.815052032,-0.513671875,1.4609375,-0.915527344
43,1211132101,0.745883763,-0.214448109,-0.201709643,-0.597481132,11.45510864,-4.012289047,10.09129524,33.58727646,-16.49778938,7.532066345,-0.541992188,1.474609375,-0.937011719
44,1211140434,0.746530116,-0.21133475,-0.202234641,-0.597605944,6.287570477,-4.399445534,8.133814812,37.3821106,23.25537109,-6.240458488,-0.545898438,1.467773438,-0.950195313
45,1211148767,0.746914804,-0.208445102,-0.203497142,-0.597711563,3.430366039,-1.234745026,7.956661701,40.29058456,12.34004974,-9.605995178,-0.565429688,1.485839844,-0.974609375
46,1211157100,0.747249424,-0.206854269,-0.204987049,-0.597336709,5.320852757,0.959273219,8.618884087,30.20831108,-1.439188242,-2.2422719,-0.568847656,1.483398438,-0.984863281
47,1211165433,0.747500122,-0.205600619,-0.205743238,-0.597196043,7.402812958,-0.371272296,9.009196281,19.6294117,3.011121035,-2.158128262,-0.5859375,1.498046875,-1.007324219
48,1211173766,0.747719109,-0.203887999,-0.205683067,-0.597529531,7.032814026,-2.177395105,7.993251801,16.3885479,17.1510582,-6.423361778,-0.591308594,1.493652344,-1.006347656
49,1211182099,0.747795463,-0.202058762,-0.2055213,-0.598110855,5.724348545,-0.837065876,7.681751728,15.47547722,18.71672821,-10.04800797,-0.612304688,1.507324219,-1.02734375
50,1211190432,0.74790585,-0.200720966,-0.205476448,-0.598438263,5.551501751,0.912178576,7.950264931,12.37689114,13.60655499,-6.24019289,-0.617675781,1.504394531,-1.02734375
51,1211198765,0.747986615,-0.199740171,-0.205202594,-0.598759532,4.594959259,0.910217345,7.528800488,6.575263977,12.17968369,-4.633077145,-0.641113281,1.518554688,-1.047851563
52,1211207098,0.747994423,-0.199425459,-0.205061451,-0.598902941,4.783442974,0.67562288,7.503883839,1.290816426,5.379411697,-2.034359217,-0.642578125,1.520507813,-1.041503906
53,1211215431,0.747976422,-0.199400574,-0.204843894,-0.599008203,6.160059452,0.568802655,8.06119442,-2.455943584,2.857100725,-0.682772934,-0.661621094,1.531738281,-1.0546875
54,1211223764,0.747931242,-0.199426487,-0.204439566,-0.599194229,6.569741249,0.038589139,8.57627964,-4.657897472,5.239097595,-1.208095551,-0.668457031,1.531738281,-1.047851563
55,1211232097,0.747980952,-0.199243486,-0.203852981,-0.599392891,4.960655212,-0.518563807,8.746248245,-3.947103262,8.402866364,-0.517253995,-0.686035156,1.546875,-1.05859375
56,1211240430,0.747899234,-0.199585527,-0.203604355,-0.599465549,5.217404842,0.048660781,8.640072823,-6.417492867,0.625614882,0.125625029,-0.689453125,1.546875,-1.048339844
57,1211248763,0.747951746,-0.20001933,-0.20326905,-0.599369228,6.147913456,-0.53867656,8.462280273,-7.385710716,-0.068697378,3.581497669,-0.711425781,1.558105469,-1.057617188
58,1211257096,0.747860074,-0.200326771,-0.202914953,-0.599500835,4.96145153,-0.566108584,8.017889023,-7.129209995,2.120359182,-0.369715869,-0.715332031,1.55859375,-1.052246094
59,1211265429,0.747697234,-0.201065466,-0.202629387,-0.599553347,5.335333824,-0.384931803,8.23391819,-11.12006283,-3.287254572,0.986852527,-0.737792969,1.569824219,-1.05859375
60,1211273762,0.7475124,-0.201837018,-0.202276811,-0.599643648,4.870575905,-0.815222025,7.719414234,-12.03082657,-2.097959518,0.586476326,-0.741699219,1.568359375,-1.052246094
61,1211282095,0.747341394,-0.202662051,-0.202031642,-0.599661171,4.868482113,-1.559178591,7.910318375,-11.59968948,-4.533336163,1.407182217,-0.765625,1.58203125,-1.055175781
62,1211290428,0.747147799,-0.203347281,-0.201919675,-0.599707901,4.639641285,-1.731829524,7.722046852,-9.064494133,-4.009678364,0.05564693,-0.767578125,1.580566406,-1.053710938
63,1211298761,0.746893883,-0.204030812,-0.202037454,-0.599752605,5.778883934,-1.638021946,7.637273788,-7.459941864,-7.251058578,-0.962992966,-0.796875,1.590820313,-1.063476563
64,1211307094,0.746751666,-0.204344317,-0.201958254,-0.599849522,6.097949028,-1.746193886,8.464232445,-4.961912632,-1.005589247,-1.171236515,-0.796875,1.588378906,-1.058105469
65,1211315427,0.746507764,-0.20440428,-0.201881766,-0.600158572,4.102803707,-1.443417311,8.267195702,-3.364839315,0.657760739,-4.783535004,-0.827148438,1.592773438,-1.064453125
66,1211323760,0.746125996,-0.205142945,-0.202255964,-0.600255013,6.57780838,-0.818001091,7.928571701,-6.244546413,-9.83368969,-3.244760275,-0.83203125,1.590332031,-1.063476563
67,1211332093,0.745950699,-0.205243677,-0.202091962,-0.60049361,5.838332176,-0.829074264,8.033816338,-4.119409084,1.212718725,-3.129956961,-0.857910156,1.600585938,-1.0703125
68,1211340426,0.745649576,-0.205680728,-0.202145919,-0.600700021,4.166932106,-0.825856686,7.919129848,-5.869272709,-3.52861762,-3.647621632,-0.860839844,1.592773438,-1.064941406
69,1211348759,0.745359361,-0.206272244,-0.202331275,-0.600794911,5.261671066,-0.258271188,7.531605721,-6.192292213,-7.14752388,-2.228156567,-0.885253906,1.599121094,-1.076660156
70,1211357092,0.745138049,-0.206827909,-0.202398643,-0.600855529,4.537875175,-0.460789651,7.604011059,-6.343263626,-4.844856262,-1.202255487,-0.89453125,1.595214844,-1.075195313
71,1211365425,0.744858861,-0.207604647,-0.202632442,-0.600854993,5.199359417,-0.51409626,7.641294479,-7.39383173,-9.415052414,-0.781721056,-0.922851563,1.595214844,-1.082519531
72,1211373758,0.744671524,-0.208373562,-0.202769816,-0.600774705,6.144642353,-0.599960506,7.972477436,-7.462963581,-7.638267994,0.92476356,-0.931152344,1.594238281,-1.076171875
73,1211382091,0.74452281,-0.208753467,-0.2026968,-0.600851893,4.247479439,-1.263545036,8.197382927,-5.709183693,-2.408199549,-0.728904366,-0.958496094,1.599121094,-1.086425781
74,1211390424,0.744256258,-0.209445685,-0.202932104,-0.600861669,4.556597233,-1.581002712,8.324608803,-6.347489357,-7.967845917,-1.147159219,-0.965820313,1.588867188,-1.079589844
75,1211398757,0.743970573,-0.209942043,-0.203187764,-0.600955904,6.047442436,-1.20100522,7.775247574,-4.627390862,-7.06627655,-2.65486455,-0.999023438,1.589355469,-1.08984375
76,1211407090,0.743681371,-0.210285887,-0.203371063,-0.601131439,6.210103512,-0.710725546,7.914638042,-3.739089012,-4.159802914,-3.863830805,-1.009277344,1.579589844,-1.089355469
77,1211415423,0.743466258,-0.210347429,-0.203307107,-0.601397574,3.69328022,-0.829630315,7.878647804,-3.098246336,0.489167899,-4.121919155,-1.041015625,1.581054688,-1.094726563
78,1211423756,0.743061244,-0.211016342,-0.203833997,-0.601485729,4.950348854,-0.84013772,7.383981705,-4.306009293,-10.93215656,-4.012034893,-1.051269531,1.571777344,-1.098144531
79,1211432089,0.742779791,-0.211212978,-0.204039633,-0.601694465,6.471885681,-0.282583088,7.578584671,-2.283868074,-3.734376431,-4.485001564,-1.086425781,1.563476563,-1.09765625
80,1211440422,0.742540538,-0.211260512,-0.204098895,-0.60195297,4.008006096,-1.104323149,7.409721851,-1.823247075,-0.068646148,-4.77075386,-1.100097656,1.554199219,-1.09765625
81,1211448755,0.74214381,-0.211686254,-0.204635277,-0.602110505,6.3860116,-1.082855344,7.216434002,-2.07621336,-9.47977829,-5.233295918,-1.135742188,1.547851563,-1.100585938
82,1211457088,0.741923928,-0.211325139,-0.204669759,-0.602496505,6.356548786,-0.99985534,7.673122883,1.836041093,3.989455462,-6.98643589,-1.150878906,1.537109375,-1.088867188
83,1211465421,0.74162817,-0.210760474,-0.204826266,-0.603004873,4.054767132,-1.903325081,7.566671848,4.193165779,3.90421176,-9.659640312,-1.181152344,1.524414063,-1.093261719
84,1211473754,0.741259515,-0.210263222,-0.205290586,-0.603473783,6.209922314,-1.798769116,7.586040974,6.126708031,0.566471696,-10.69663334,-1.196289063,1.5078125,-1.083984375
85,1211482087,0.740884542,-0.208924264,-0.205466703,-0.604338825,5.315711975,-1.164335847,7.615929127,11.01011658,10.93668079,-16.19524765,-1.227539063,1.494140625,-1.080566406
86,1211490420,0.740470827,-0.207738638,-0.205763772,-0.605153024,4.479872227,-0.961138964,7.922147274,10.65966225,8.849503517,-16.06389618,-1.236328125,1.471679688,-1.06640625
87,1211498753,0.740049362,-0.20662877,-0.206148967,-0.605917215,4.786322117,-0.839436889,7.872612,10.5668354,6.481466293,-15.50681114,-1.270019531,1.457519531,-1.068359375
88,1211507086,0.739632547,-0.20558089,-0.206674933,-0.606602907,5.043251038,-0.934870124,7.832595825,11.51838112,4.991819382,-15.05174923,-1.279785156,1.441894531,-1.055175781
89,1211515419,0.739163518,-0.204644337,-0.207220018,-0.60730511,5.05780077,-0.145338178,8.105869293,10.17706394,3.096288204,-15.23612022,-1.298339844,1.423339844,-1.048339844
90,1211523752,0.738728642,-0.204139218,-0.207842812,-0.607791007,4.68469286,-0.311108351,8.119605064,7.3295784,-1.146672606,-11.896842,-1.308105469,1.40234375,-1.039550781
91,1211532085,0.738237262,-0.20378083,-0.208739996,-0.608200729,5.137464046,-0.556811929,8.011689186,8.015553474,-6.195392609,-11.78961945,-1.329101563,1.390625,-1.026855469
92,1211540418,0.737755299,-0.203461677,-0.209641486,-0.60858202,5.447745323,-0.196613714,8.383712769,7.927517891,-5.971524715,-11.48230076,-1.333496094,1.369140625,-1.012695313
93,1211548751,0.737285614,-0.203345612,-0.210622743,-0.608851075,5.080077648,-0.078103133,8.294980049,6.725722313,-9.408776283,-9.719655991,-1.348632813,1.353027344,-1.007324219
94,1211557084,0.736817956,-0.203446493,-0.211715162,-0.609004617,5.755318642,-0.138833448,8.362280846,5.962573051,-12.02575874,-8.36924839,-1.353027344,1.333496094,-0.994628906
95,1211565417,0.736324251,-0.203566045,-0.212815344,-0.609178483,4.804961681,-0.403108448,8.354143143,5.541013718,-12.92261505,-8.604668617,-1.3671875,1.318847656,-0.985839844
96,1211573750,0.735741735,-0.204162508,-0.214201435,-0.609196961,5.432736874,-0.360953748,8.118031502,3.470999241,-19.87378693,-7.331130505,-1.3671875,1.299804688,-0.979003906
97,1211582083,0.735139728,-0.204841942,-0.215662524,-0.609180033,5.144331932,-0.2646074,8.095776558,3.152435064,-22.11733818,-6.950963497,-1.387207031,1.284179688,-0.97265625
98,1211590416,0.734228015,-0.206178829,-0.21733205,-0.609235346,4.17743063,-0.301707506,8.18838501,-2.681787252,-29.82449532,-9.068523407,-1.383789063,1.269042969,-0.958984375
99,1211598749,0.732251048,-0.209789723,-0.218849778,-0.609838426,6.553963661,-2.093821764,8.037683487,-31.72415352,-49.59629059,-16.14091492,-1.400878906,1.25390625,-0.94921875
100,1211607082,0.730540156,-0.210452974,-0.220657796,-0.611009002,4.30725956,-5.542664528,8.197135925,-0.401324332,-24.75178337,-29.48463631,-1.410644531,1.238769531,-0.937011719
101,1211615415,0.728232861,-0.212468445,-0.223419428,-0.612061143,5.15004015,4.362235546,8.094658852,-7.487294674,-48.45805359,-31.811903,-1.429199219,1.217773438,-0.928710938
102,1211623748,0.727008641,-0.214971036,-0.225515932,-0.611873984,7.864253998,-2.380137205,7.662935257,-10.81724453,-45.58553696,-7.026612759,-1.434570313,1.201660156,-0.915527344
103,1211632081,0.725199223,-0.215932012,-0.228118271,-0.612717628,5.241159439,-0.482204974,8.134455681,3.749533892,-37.04327393,-28.350914,-1.450683594,1.182617188,-0.911621094
104,1211640414,0.723782003,-0.217755884,-0.230988562,-0.612672567,4.62668705,1.545727491,8.284605026,1.506414771,-47.78368759,-14.44791794,-1.454589844,1.160644531,-0.898925781
105,1211648747,0.722529173,-0.219939098,-0.234250203,-0.612132788,5.678983688,0.415999025,8.187729836,3.139686346,-56.2747879,-7.993687153,-1.473632813,1.145019531,-0.895507813
106,1211657080,0.72138226,-0.222046286,-0.237830549,-0.611343503,5.704788685,0.684420764,8.135659218,7.841808796,-58.62384033,-5.996772766,-1.477050781,1.125976563,-0.875488281
107,1211665413,0.720353305,-0.224502727,-0.241858467,-0.610078096,4.837239265,0.815467775,8.159006119,9.917167664,-67.66120148,-0.340568244,-1.492675781,1.107910156,-0.867675781
108,1211673746,0.719300687,-0.2275832,-0.246407866,-0.608355939,6.115229607,0.388666272,8.469322205,9.68291378,-78.9677887,4.294340134,-1.499511719,1.088867188,-0.849609375
109,1211682079,0.718328357,-0.230362371,-0.251173347,-0.606507182,5.137395382,-0.182312965,8.538048744,15.02448654,-79.29328918,4.677071095,-1.515625,1.070800781,-0.837890625
110,1211690412,0.717122912,-0.233788952,-0.256583124,-0.604354084,4.778928757,-0.137951151,7.923257828,14.43489838,-92.26024628,5.783828735,-1.520019531,1.051757813,-0.815917969
111,1211698745,0.715731978,-0.237709895,-0.262429774,-0.601958036,7.008435249,-0.106856465,8.522978783,13.33260536,-102.6773987,7.129469872,-1.538085938,1.034667969,-0.80078125
112,1211707078,0.714375317,-0.241269812,-0.268417418,-0.599508286,5.183638573,-0.49656719,8.110485077,18.46965599,-100.5906677,6.017056465,-1.539550781,1.015136719,-0.778808594
113,1211715411,0.712582469,-0.245703369,-0.275139958,-0.596787393,5.520681381,-0.499824017,7.951988697,15.38882446,-118.0603027,6.031958103,-1.559082031,0.997070313,-0.765625
114,1211723744,0.710575819,-0.250274658,-0.282222956,-0.593966603,6.702627659,-0.48138234,7.989292622,16.76076126,-123.3488159,4.397934914,-1.560058594,0.981933594,-0.740234375
115,1211732077,0.708394468,-0.254908472,-0.289724886,-0.590982139,5.54495573,-0.602157712,7.382469654,19.49768448,-129.7158966,3.531885624,-1.575683594,0.965332031,-0.725097656
116,1211740410,0.705729663,-0.260298729,-0.298098773,-0.587646663,5.91379118,-0.38714999,7.173191547,19.02069473,-147.01297,2.807592154,-1.575683594,0.94921875,-0.697753906
117,1211748743,0.702961326,-0.265895307,-0.306882888,-0.583925843,5.945019722,-0.78160274,8.590360641,21.44143677,-154.9670868,5.260932446,-1.591796875,0.937011719,-0.677734375
118,1211757076,0.699906051,-0.271925986,-0.316248626,-0.579806685,4.877398968,-0.898640454,8.70344162,22.64468575,-166.2644958,6.331317425,-1.591308594,0.91796875,-0.647460938
119,1211765409,0.696158528,-0.278731048,-0.326605082,-0.575328171,6.956337452,-0.468927294,8.014268875,21.96690178,-186.8110809,4.114248276,-1.60546875,0.904785156,-0.631835938
120,1211773742,0.691888571,-0.286038935,-0.337513506,-0.570576847,7.617134094,-0.734223366,7.797702312,20.83646965,-199.0278168,2.540548086,-1.602539063,0.888671875,-0.592773438
121,1211782075,0.686995208,-0.293882668,-0.349026233,-0.565555155,5.915539265,-0.855269909,9.103243828,19.18933105,-213.3772125,0.525586843,-1.618164063,0.877441406,-0.578613281
122,1211790408,0.681077063,-0.302814931,-0.361428916,-0.560185373,5.319023132,-0.576715052,7.956349373,13.44046593,-236.1678925,-2.733916759,-1.618164063,0.860839844,-0.541992188
123,1211798741,0.673778474,-0.313243151,-0.375272334,-0.554141939,7.950118065,-0.133746132,8.370390892,8.043610573,-271.2697754,-5.417609215,-1.634765625,0.854980469,-0.515136719
124,1211807074,0.665502787,-0.324571878,-0.389541626,-0.547738791,7.135213375,-0.604635894,8.454709053,0.660908401,-288.3143005,-6.935638905,-1.634277344,0.837402344,-0.478515625
125,1211815407,0.65508604,-0.337729633,-0.404987067,-0.541098595,5.295711994,-0.89746207,7.45057869,-15.57588959,-325.7496338,-16.12690544,-1.649902344,0.831542969,-0.438964844
126,1211823740,0.642318487,-0.353193402,-0.421998233,-0.533479393,7.181165695,-1.840483427,8.043234825,-30.11461449,-374.3574829,-19.45394897,-1.651855469,0.819335938,-0.387207031
127,1211832073,0.627713084,-0.368766159,-0.440193176,-0.525565445,6.968158722,-4.451288223,7.669349194,-29.66107368,-398.0305176,-35.22942352,-1.666992188,0.811523438,-0.33984375
128,1211840406,0.610676289,-0.383772463,-0.460274816,-0.517630816,4.228293419,-5.929640293,7.313405037,-23.32426071,-424.8036804,-65.86997223,-1.663085938,0.798828125,-0.28515625
129,1211848739,0.590769589,-0.399222493,-0.482402086,-0.508824527,6.038620949,-5.034638405,7.645555496,-22.1337719,-468.1859741,-86.72743225,-1.67578125,0.783691406,-0.229003906
130,1211857072,0.569077194,-0.415124059,-0.504293084,-0.499512792,10.70329189,-0.826963663,6.916677952,-33.90897369,-483.8710022,-91.13709259,-1.675292969,0.767089844,-0.166015625
131,1211865405,0.546716809,-0.431754798,-0.523827255,-0.490198731,16.06724739,3.850667477,3.86749959,-59.60639191,-475.2621765,-76.88247681,-1.680664063,0.755371094,-0.104492188
132,1211873738,0.523871362,-0.449847788,-0.541208625,-0.479885787,21.80100441,2.669842958,1.156630516,-80.86252594,-478.2416992,-49.66815567,-1.666503906,0.735839844,-0.038574219
133,1211882071,0.504070818,-0.467041701,-0.555222392,-0.468523324,33.00544357,-3.533840418,10.72902489,-69.89535522,-431.9700317,-7.51640892,-1.665527344,0.733398438,0.015136719
134,1211890404,0.490031868,-0.474578589,-0.567406535,-0.461188674,30.32691956,-9.662090302,9.353521347,-8.553011894,-287.0521851,-60.60177612,-1.645019531,0.727050781,0.053222656
135,1211898737,0.479229152,-0.472039133,-0.582089901,-0.456827283,18.65540695,-9.515991211,10.16885185,73.19519806,-195.4288025,-154.7508698,-1.656738281,0.71484375,0.073730469
136,1211907070,0.470665395,-0.467353076,-0.595648766,-0.453055292,10.3589468,-2.654073715,13.3530817,89.96734619,-152.8448639,-154.8508301,-1.657714844,0.698730469,0.076660156
137,1211915403,0.462317914,-0.464860886,-0.606522501,-0.449775875,9.193714142,1.024688125,15.08112431,56.51856232,-144.1308594,-121.059639,-1.673339844,0.690917969,0.080566406
138,1211923736,0.454132617,-0.464893371,-0.614281952,-0.44754526,12.79434586,0.137719795,15.10003567,13.35322762,-132.1455383,-86.24016571,-1.671386719,0.685546875,0.086425781
139,1211932069,0.448443741,-0.46720162,-0.616600275,-0.44769007,14.79606152,-1.363755345,15.65775585,-38.31351089,-75.63819885,-31.218647,-1.688476563,0.68359375,0.099609375
140,1211940402,0.446339905,-0.468479395,-0.615186632,-0.450393736,12.20160389,-3.030088425,13.75910568,-53.71006012,0.081824884,-10.17707443,-1.694335938,0.693359375,0.100097656
141,1211948735,0.445966929,-0.465025902,-0.614186227,-0.455676436,3.906116724,-5.150774956,12.16789436,-32.66700745,58.58608627,-57.48496246,-1.713378906,0.697753906,0.09375
142,1211957068,0.446218938,-0.462154478,-0.613446951,-0.459332049,4.94027853,-5.241382599,13.27748966,-16.93360901,47.50849915,-40.89268494,-1.727539063,0.701171875,0.08203125
143,1211965401,0.448538721,-0.459080696,-0.609912634,-0.46482867,7.491915703,-2.714897871,11.10125542,-35.66260529,95.78424835,-22.52043343,-1.750976563,0.7109375,0.068359375
144,1211973734,0.452673763,-0.453727663,-0.606155455,-0.470950663,5.54420805,-5.375844479,7.363351345,-16.8581028,130.030426,-33.11597443,-1.764648438,0.720214844,0.045898438
145,1211982067,0.459073275,-0.447917461,-0.602146566,-0.47543931,0.749344707,-7.267683506,6.135213375,12.14553452,144.1138306,-9.892630577,-1.793457031,0.736328125,0.017089844
146,1211990400,0.465740681,-0.443122298,-0.597584128,-0.479189783,-1.541776776,-2.934228897,6.284730434,9.877693176,137.6400909,7.641020775,-1.805664063,0.754394531,-0.007324219
147,1211998733,0.471420854,-0.440484047,-0.592342138,-0.48256442,-0.20761627,0.656215727,6.03919363,-11.33757114,118.3770294,26.10005379,-1.830566406,0.77734375,-0.032714844
148,1212007066,0.476808876,-0.439335138,-0.586297035,-0.485690266,2.322060585,-0.774013758,5.689486504,-26.0548172,108.7399063,42.01749039,-1.838378906,0.797363281,-0.053222656
149,1212015399,0.482910156,-0.438009083,-0.579780042,-0.488673925,4.007733345,-3.708323002,5.628725052,-22.60106087,118.9833984,49.88996124,-1.856445313,0.828613281,-0.076660156
150,1212023732,0.490660071,-0.435168833,-0.572596729,-0.491950244,4.70132637,-4.278859138,6.148143291,-9.389252663,147.3503723,50.20827103,-1.858398438,0.858886719,-0.106445313
151,1212032065,0.499750882,-0.430938095,-0.564395845,-0.495983869,4.862834454,-1.752568245,6.464236259,-4.866649628,179.8582458,50.07105255,-1.881835938,0.890625,-0.136230469
152,1212040398,0.509615898,-0.426322281,-0.554575264,-0.500987589,4.502261639,0.783783019,6.352237225,-16.15015602,204.1574097,54.47874832,-1.881347656,0.921386719,-0.181640625
153,1212048731,0.519464612,-0.421922088,-0.543397963,-0.506812215,4.025074482,1.38615799,5.981144428,-33.4249382,218.0882721,59.02722549,-1.897460938,0.961425781,-0.223632813
154,1212057064,0.529287279,-0.417636186,-0.531201482,-0.513090014,4.250929832,0.453981042,5.509403229,-44.77494049,225.7212372,61.54919052,-1.890136719,0.998535156,-0.264160156
155,1212065397,0.539112449,-0.412931621,-0.518350065,-0.519769013,4.821461201,-0.330337167,5.159991741,-49.37245178,237.0519867,60.17591476,-1.901855469,1.041992188,-0.313964844
156,1212073730,0.549133122,-0.40737465,-0.504838765,-0.526913583,5.222928524,-0.058358319,4.915196419,-49.83024597,250.7376404,54.97086334,-1.893554688,1.079101563,-0.357910156
157,1212082063,0.559060276,-0.401129723,-0.490960479,-0.534327328,5.317257881,0.644230247,5.01541996,-49.83436203,260.692627,50.36241913,-1.895507813,1.122558594,-0.411621094
158,1212090396,0.568751335,-0.394325078,-0.476696044,-0.542025924,5.276779652,1.083131433,5.078289032,-51.39894867,266.3726196,43.9551239,-1.872070313,1.163085938,-0.46484375
159,1212098729,0.577778816,-0.386996508,-0.462391257,-0.55009222,5.239896774,1.143054605,5.120611191,-53.80757141,269.6194458,33.75143433,-1.872070313,1.208984375,-0.520996094
160,1212107062,0.586084664,-0.379264712,-0.447970778,-0.558557689,5.55102253,0.985889792,5.183722496,-57.59971619,269.7102966,22.34673691,-1.837890625,1.249023438,-0.577636719
161,1212115395,0.593511641,-0.371349126,-0.433529288,-0.567360103,6.3526721,0.782015145,5.512290955,-63.19728851,269.0483398,12.68280888,-1.823242188,1.296386719,-0.632324219
162,1212123728,0.600355804,-0.363364339,-0.418700546,-0.57639432,7.70882225,0.465115637,5.959635258,-69.70610046,269.0234375,6.989717007,-1.782714844,1.331054688,-0.681152344
163,1212132061,0.606961012,-0.355359733,-0.403433174,-0.585286736,9.412831306,-0.416441381,6.181499958,-73.70399475,272.1528625,9.161458015,-1.751953125,1.380859375,-0.736328125
164,1212140394,0.614018321,-0.3470245,-0.387481242,-0.59364593,10.69977951,-1.910271406,6.016777992,-70.91404724,278.9833984,17.95465469,-1.693847656,1.423339844,-0.772949219
165,1212148727,0.621668339,-0.33829394,-0.371320426,-0.601006329,11.32554245,-3.202292919,5.93785429,-61.50257492,283.8155823,30.92749977,-1.645019531,1.463378906,-0.821777344
166,1212157060,0.630086839,-0.329409271,-0.354969144,-0.607024074,11.68093967,-3.783170938,6.045022488,-50.9030571,282.9514771,48.03923798,-1.565917969,1.499023438,-0.85546875
167,1212165393,0.639246643,-0.320727557,-0.338806629,-0.611317456,12.30203915,-3.896981716,6.22964716,-39.73368835,276.8724365,70.12397003,-1.501464844,1.537109375,-0.886230469
168,1212173726,0.649362624,-0.312316805,-0.322494596,-0.613828182,13.0300293,-3.940037966,6.52006197,-30.36984634,271.0730591,94.91582489,-1.411621094,1.562011719,-0.915527344
169,1212182059,0.660212636,-0.303888977,-0.306349814,-0.614753485,13.26709461,-3.962697268,6.797785759,-19.10020256,267.5966797,115.3173599,-1.329589844,1.590820313,-0.941894531
170,1212190392,0.671592593,-0.295455605,-0.290228575,-0.614359796,12.91833973,-3.438985825,7.336251736,-10.55758095,262.7505188,130.8013,-1.220703125,1.600097656,-0.953125
171,1212198725,0.682963133,-0.287231565,-0.274643362,-0.612887979,12.78248787,-2.614649773,7.951791763,-4.218463421,253.0119019,140.1869049,-1.133300781,1.615234375,-0.978515625
172,1212207058,0.694043159,-0.279260755,-0.259427279,-0.610750437,13.36129856,-1.733402729,8.518959999,-1.570236444,242.3078461,142.6408081,-1.026367188,1.609375,-0.975585938
173,1212215391,0.704474688,-0.271498442,-0.244452208,-0.608480096,14.13650227,-0.706271946,8.848097801,-4.102777004,236.8073578,139.128067,-0.940917969,1.606933594,-0.977539063
174,1212223724,0.714248121,-0.263858944,-0.229299724,-0.606342435,14.58067703,0.374952197,8.815505028,-9.119582176,234.4329681,132.589859,-0.838378906,1.581054688,-0.958007813
175,1212232057,0.723061621,-0.256542742,-0.214200497,-0.604555368,14.62150288,1.333647728,8.757862091,-16.99996567,230.8045807,122.7882004,-0.764160156,1.571289063,-0.94921875
176,1212240390,0.730925441,-0.249473035,-0.199256703,-0.603166103,14.97612858,1.464671612,8.987733841,-22.12887955,224.5241852,110.3440704,-0.676757813,1.539550781,-0.920898438
177,1212248723,0.737859368,-0.242331833,-0.184680104,-0.602273583,15.76047611,1.519453883,9.135796547,-23.46806526,221.8720856,96.94882965,-0.615234375,1.528808594,-0.904785156
178,1212257056,0.743998766,-0.234777063,-0.17027761,-0.601957262,16.11747169,1.845488787,9.227968216,-21.40498924,222.2213745,82.19748688,-0.541992188,1.498535156,-0.866210938
179,1212265389,0.749329031,-0.226970121,-0.156260848,-0.602141857,16.1158371,2.278647423,9.108306885,-19.95262718,221.2953796,69.2318573,-0.494628906,1.482910156,-0.838378906
180,1212273722,0.753952503,-0.219225883,-0.142293528,-0.602701724,15.93638134,2.991248608,8.778143883,-22.68564224,218.8150024,58.86833572,-0.433105469,1.44921875,-0.797851563
181,1212282055,0.75752008,-0.212117091,-0.1284464,-0.603881061,15.1145525,4.053467274,7.982218742,-33.19011688,213.2067871,45.19929123,-0.403320313,1.439453125,-0.751464844
182,1212290388,0.759726286,-0.206517309,-0.114911675,-0.605774641,15.47877121,5.291839123,6.524982929,-51.05783844,196.1204071,27.66004944,-0.3671875,1.40234375,-0.701171875
183,1212298721,0.760588408,-0.202357978,-0.101942696,-0.608412206,17.25221062,4.465005875,4.061967373,-66.87728882,179.1751862,9.907663345,-0.351074219,1.394042969,-0.653808594
184,1212307054,0.760152221,-0.198847562,-0.08935111,-0.612083316,18.05272865,2.591821432,0.680987298,-75.12784576,170.0249481,-12.36764717,-0.333984375,1.367675781,-0.602050781
185,1212315387,0.758357882,-0.196305692,-0.077398092,-0.616740167,17.78693771,2.077179193,-2.292068958,-85.24347687,157.0523987,-34.20025253,-0.338378906,1.364257813,-0.562988281
186,1212323720,0.755503476,-0.19585599,-0.066693775,-0.621617258,18.02111244,2.879553795,-5.051625729,-99.15402985,125.1369781,-47.02132034,-0.329101563,1.344238281,-0.517089844
187,1212332053,0.752168477,-0.19772169,-0.058034964,-0.625924826,18.88059616,4.153065681,-8.027353287,-106.9095612,82.73202515,-48.20794678,-0.34375,1.350097656,-0.479492188
188,1212340386,0.749450922,-0.200982973,-0.052047063,-0.628666461,20.22784805,4.061955929,-9.606939316,-95.02042389,38.96593857,-33.16719055,-0.346191406,1.331054688,-0.447753906
189,1212348719,0.748148203,-0.20369716,-0.049749523,-0.629529893,21.84374428,2.027739763,-10.46587086,-52.62744522,1.845036268,-11.84763813,-0.353027344,1.342773438,-0.431152344
190,1212357052,0.7479949,-0.204165295,-0.050048649,-0.629536688,21.66796684,0.511843324,-10.01865387,-2.85665369,-7.118735313,-2.133025885,-0.346191406,1.33203125,-0.427246094
191,1212365385,0.748078227,-0.202693701,-0.051726826,-0.629777551,18.83148193,1.301694989,-7.516526222,29.15928078,-3.613479614,-7.459664822,-0.350585938,1.346679688,-0.433105469
192,1212373718,0.748598576,-0.201298863,-0.055024832,-0.62932694,15.60005093,2.996172905,-4.250963688,44.49472427,-22.32436562,-1.197724223,-0.344726563,1.334472656,-0.441894531
193,1212382051,0.749876201,-0.201153055,-0.060006257,-0.627394378,13.55378437,2.898036957,-1.769102216,49.03653336,-54.22531891,17.07213783,-0.3515625,1.3515625,-0.456542969
194,1212390384,0.751562238,-0.20195736,-0.066572919,-0.624449015,12.88278103,0.924205303,0.02887468,55.25651932,-80.77220917,27.30857086,-0.333496094,1.347167969,-0.4765625
195,1212398717,0.7534374,-0.202453226,-0.074128553,-0.621168911,13.30564022,-0.416005999,1.130578995,67.39337158,-89.56412506,29.4936924,-0.334472656,1.37109375,-0.505859375
196,1212407050,0.755513906,-0.20177187,-0.081829764,-0.617893279,12.28827572,-0.451820433,2.525337934,81.74602509,-80.18061066,29.46176529,-0.319824219,1.367675781,-0.534667969
197,1212415383,0.757582486,-0.200752497,-0.089559823,-0.614611924,9.86313343,0.948606014,6.413880825,85.13267517,-78.25128174,29.09465981,-0.3203125,1.392089844,-0.571289063
198,1212423716,0.759231865,-0.201748624,-0.096048795,-0.611261368,4.819579124,2.314828157,19.04858971,52.92804337,-82.30912781,32.08088684,-0.315917969,1.388183594,-0.6015625
199,1212432049,0.758071661,-0.203206763,-0.103070542,-0.611074567,-18.13683128,-2.310184956,34.86706543,40.25338745,-87.4427948,-25.33467293,-0.325195313,1.408203125,-0.626953125
200,1212440382,0.750898182,-0.203804508,-0.109433487,-0.618579865,-26.4024334,-13.34924793,26.96161461,16.27454567,-59.5999794,-155.5155945,-0.340820313,1.408691406,-0.641113281
201,1212448715,0.754202247,-0.209256411,-0.118010305,-0.611118257,7.078871727,-9.669913292,9.463857651,36.57762909,-150.7081909,89.3451004,-0.367675781,1.428710938,-0.659667969
202,1212457048,0.759554863,-0.209508568,-0.132452384,-0.601365268,21.93111992,0.617986739,-8.041479111,149.7272034,-170.7848663,104.8231888,-0.345703125,1.402832031,-0.692382813
203,1212465381,0.75651139,-0.212296933,-0.142535135,-0.601918161,30.02771378,13.4002943,-6.214977741,43.90843582,-132.1499023,-54.89289856,-0.37109375,1.419921875,-0.739746094
204,1212473714,0.757626593,-0.215457827,-0.15026474,-0.597496152,20.6208725,6.076916218,11.65441132,42.79342651,-116.6336746,38.67239761,-0.374023438,1.424316406,-0.771484375
205,1212482047,0.758727312,-0.216658682,-0.155231193,-0.594387531,3.595405817,-4.915835857,15.59913635,37.40690613,-68.36919403,29.21931648,-0.383300781,1.444335938,-0.80859375
206,1212490380,0.758101046,-0.214080691,-0.162151352,-0.59427321,-7.048989296,-7.153844357,14.50016403,81.50374603,-51.87825394,-30.1303215,-0.386230469,1.446289063,-0.837890625
207,1212498713,0.757575333,-0.213329449,-0.170756489,-0.59280169,-2.323428631,3.72484374,8.530800819,79.31518555,-88.89804077,-15.94432068,-0.415527344,1.458496094,-0.870117188
208,1212507046,0.755621195,-0.216626748,-0.180422187,-0.591234684,8.959237099,13.54927921,8.50360775,42.08097076,-135.9545288,-20.36719513,-0.432128906,1.448242188,-0.876953125
209,1212515379,0.754749238,-0.219243467,-0.187910557,-0.589047432,16.75736237,6.584379196,10.21720505,35.94948959,-107.5900803,-0.154353127,-0.4609375,1.458007813,-0.900878906
210,1212523712,0.75537169,-0.219213068,-0.191146269,-0.587216735,11.52253532,-7.260364532,9.127022743,32.72360229,-36.4695282,14.13249493,-0.472167969,1.451171875,-0.907714844
211,1212532045,0.755258143,-0.215888172,-0.194360405,-0.587539613,3.689564943,-11.46380997,8.683958054,58.72740936,-5.685662746,-22.67769432,-0.495605469,1.466796875,-0.934082031
212,1212540378,0.755135953,-0.212180436,-0.198662296,-0.587608397,2.609115362,-3.921381235,8.263991356,72.29892731,-13.98465252,-24.44248581,-0.502441406,1.462402344,-0.954589844
213,1212548711,0.755147278,-0.209359065,-0.202394754,-0.58733201,6.225734234,3.315746307,9.133220673,59.67241287,-16.56004715,-15.61439133,-0.526855469,1.474121094,-0.98828125
214,1212557044,0.755339146,-0.206995144,-0.203931645,-0.587391615,7.654032707,2.144013166,9.229142189,36.98360825,4.667546749,-10.21335602,-0.534667969,1.472167969,-1.005859375
215,1212565377,0.755442798,-0.204714373,-0.204934254,-0.587708533,7.101782799,-2.679190159,8.631022453,30.62132263,9.377675056,-11.68379116,-0.5546875,1.486816406,-1.029785156
216,1212573710,0.755550623,-0.202298567,-0.206088036,-0.588003099,8.22202301,-2.724918842,7.736409187,33.49432755,9.50275135,-12.35386276,-0.557128906,1.483886719,-1.037597656
217,1212582043,0.755725503,-0.199411988,-0.206527114,-0.588610053,6.674600124,0.068005174,7.991858006,31.73460579,21.13811302,-14.27365494,-0.577148438,1.49609375,-1.056152344
218,1212590376,0.755690217,-0.197243661,-0.206779122,-0.589296818,4.874549866,2.200445652,7.728320122,22.1418972,17.56742096,-14.40071774,-0.583984375,1.491210938,-1.058105469
219,1212598709,0.755757034,-0.195921302,-0.206819415,-0.589638054,4.875489712,1.616845489,7.49646616,12.70508671,11.58835697,-6.853167534,-0.605957031,1.504882813,-1.073730469
220,1212607042,0.755789757,-0.195243075,-0.206739798,-0.589848995,5.679872513,0.817411482,7.735441208,5.488580227,7.841580391,-3.755610704,-0.607910156,1.504394531,-1.068359375
221,1212615375,0.755878031,-0.194849759,-0.206558675,-0.589929342,7.01281786,-0.29583618,8.398340225,2.053301334,5.714958668,-0.730389893,-0.629394531,1.518554688,-1.081054688
222,1212623708,0.755970955,-0.19404614,-0.206248537,-0.590183854,6.03332901,-1.171718478,8.872205734,4.942485332,11.53997135,-3.440683842,-0.62890625,1.515625,-1.073242188
223,1212632041,0.755937994,-0.193274558,-0.206074595,-0.590539873,5.196352959,0.057273798,8.854566574,4.937515736,9.102876663,-5.670428753,-0.653320313,1.52734375,-1.085449219
224,1212640374,0.755907476,-0.193057284,-0.205967858,-0.590687215,5.171036243,-0.023594851,8.294612885,0.46929127,4.035254002,-2.215733767,-0.659667969,1.524902344,-1.075683594
225,1212648707,0.755844355,-0.192840889,-0.205986843,-0.590832114,5.611998558,-0.564821661,8.367089272,1.251601338,1.942980766,-2.660858154,-0.682128906,1.533691406,-1.087890625
226,1212657040,0.755764663,-0.192552224,-0.20597671,-0.591031611,4.669469357,-0.535637379,8.378774643,1.71731925,3.600989819,-3.602898359,-0.685058594,1.534667969,-1.078125
227,1212665373,0.755622804,-0.192690462,-0.206173494,-0.591099381,4.687188148,-0.440959603,7.799777031,-0.979052901,-3.214099646,-1.966251016,-0.708984375,1.544433594,-1.095214844
228,1212673706,0.755546153,-0.192855492,-0.2063853,-0.591069818,6.189942837,-1.273466468,7.977378368,-0.53846246,-2.999734402,-0.500911951,-0.713867188,1.543457031,-1.087402344
229,1212682039,0.755403757,-0.192573473,-0.206448078,-0.591321707,4.807068825,-1.158469915,7.919921875,1.774131775,2.08209157,-4.720703602,-0.73828125,1.553222656,-1.09765625
230,1212690372,0.75522989,-0.192551762,-0.206738874,-0.591448963,4.804320335,-1.103087187,7.684402943,1.343248963,-2.162712336,-3.665089846,-0.741699219,1.551757813,-1.096191406
231,1212698705,0.755070508,-0.192318603,-0.207030356,-0.591626346,5.336909771,-1.139815688,7.656059265,3.291672468,-0.936968803,-4.551905632,-0.768066406,1.557617188,-1.104003906
232,1212707038,0.754879296,-0.192053825,-0.207344368,-0.591846406,6.099564075,-0.618736207,8.021884918,3.753855467,-0.237904996,-5.523683548,-0.76953125,1.556152344,-1.100097656
233,1212715371,0.754744828,-0.191586748,-0.207402021,-0.592149198,5.084217548,-0.320401341,8.451249123,3.525069952,3.795453787,-5.700089931,-0.796875,1.562011719,-1.109863281
234,1212723704,0.754577041,-0.191378102,-0.207679346,-0.592333019,4.789561272,-1.026705503,8.003152847,3.036939144,-0.338671446,-4.711815834,-0.801269531,1.558105469,-1.106933594
235,1212732037,0.754396379,-0.191077054,-0.207946718,-0.592566371,6.414561272,-0.689727724,8.15034008,3.586056709,-0.047924232,-5.434008598,-0.827148438,1.562988281,-1.118164063
236,1212740370,0.754263699,-0.190556109,-0.208000526,-0.592884421,4.554035187,-0.080215007,7.930971146,4.166321754,4.968304157,-6.122493744,-0.83203125,1.558105469,-1.1171875
237,1212748703,0.75410378,-0.190419137,-0.208267674,-0.593038023,4.164962769,-0.273255318,7.635858536,2.165875673,-1.531756878,-3.967132807,-0.855957031,1.55859375,-1.123046875
238,1212757036,0.753949106,-0.190354481,-0.208493665,-0.593175828,4.813941479,-0.005674649,7.731751442,1.293070555,-1.075311065,-3.574286699,-0.864257813,1.553222656,-1.120605469
239,1212765369,0.753813803,-0.190321624,-0.208653018,-0.593302369,4.421266079,0.011682361,7.955692291,0.349467844,-1.264088154,-2.904756784,-0.890136719,1.559082031,-1.130859375
240,1212773702,0.753698111,-0.190454945,-0.208907694,-0.593316734,4.793990612,-0.254922003,8.133561134,-0.073845848,-3.207133055,-1.484037638,-0.900390625,1.549804688,-1.130859375
241,1212782035,0.753602445,-0.190620929,-0.20915781,-0.593296766,4.840768814,-0.739116549,8.114022255,-0.446840316,-4.096868515,-0.731798649,-0.931152344,1.551757813,-1.142089844
242,1212790368,0.75345993,-0.190989941,-0.209523052,-0.593230486,6.445613384,-0.585120499,8.202017784,-1.457629442,-6.576634884,-0.473735303,-0.936523438,1.544433594,-1.142578125
243,1212798701,0.753378987,-0.190863281,-0.209595442,-0.593348503,4.637565613,-0.522304058,8.498175621,0.776585281,0.536733508,-2.417190075,-0.967773438,1.544921875,-1.15234375
244,1212807034,0.753182948,-0.191157535,-0.210124448,-0.593315303,3.884482384,-0.97919029,7.796038151,0.421392649,-7.730428696,-1.901216865,-0.976074219,1.53515625,-1.148925781
245,1212815367,0.752903759,-0.191549793,-0.210716486,-0.593333244,6.745126247,-0.151695892,7.875919342,-0.592226803,-9.91504097,-2.865131855,-1.0078125,1.535644531,-1.158203125
246,1212823700,0.752676368,-0.191542476,-0.210959077,-0.593537807,4.354198933,-0.404530227,7.855958939,0.437324673,-1.78620863,-4.739376545,-1.020996094,1.524414063,-1.155273438
247,1212832033,0.752329409,-0.19186841,-0.211575091,-0.593653202,4.411984921,-0.863201499,7.744408607,-0.167798877,-9.560617447,-4.682923317,-1.0546875,1.521484375,-1.158203125
248,1212840366,0.75193727,-0.192172483,-0.212104648,-0.593862593,5.406977654,-0.658085346,7.935432911,-0.897010565,-7.761958599,-5.987891197,-1.071289063,1.51171875,-1.157226563
249,1212848699,0.75153935,-0.192307889,-0.212566242,-0.594157398,4.569648266,-0.894380987,7.852932453,-0.115878813,-6.083330154,-7.100522518,-1.105957031,1.502441406,-1.155761719
250,1212857032,0.751050651,-0.192591742,-0.213239968,-0.594441891,5.725333691,-1.043196082,7.75240469,0.018480672,-9.176787376,-7.997123718,-1.119628906,1.48828125,-1.153320313
251,1212865365,0.750525296,-0.192509472,-0.213626876,-0.594993055,5.539489269,-0.681773961,8.178189278,0.431049198,-3.228316069,-11.23115158,-1.155273438,1.479980469,-1.149902344
252,1212873698,0.749961793,-0.192398146,-0.214071319,-0.595579445,3.963674307,-0.889162719,8.13043499,1.146608591,-3.000784874,-12.2781601,-1.16796875,1.466796875,-1.140136719
253,1212882031,0.749345183,-0.19245404,-0.214716539,-0.596105039,5.199117661,-0.667945325,8.095986366,0.954886198,-7.359817505,-11.99135876,-1.201660156,1.455078125,-1.135253906
254,1212890364,0.748716712,-0.192392007,-0.215384051,-0.596674025,6.114994049,-0.294391841,7.732622147,2.341640711,-5.954387665,-13.08469963,-1.211914063,1.4375,-1.124023438
255,1212898697,0.748082757,-0.19225961,-0.215936512,-0.597311974,5.231627941,-0.353568524,8.178389549,1.756176114,-4.613841534,-13.60346508,-1.244628906,1.423339844,-1.115722656
256,1212907030,0.747434497,-0.192168951,-0.216730565,-0.597864509,3.229878664,-0.831380963,7.935715199,3.675937414,-7.121962547,-13.49516773,-1.254882813,1.405761719,-1.104980469
257,1212915363,0.746693075,-0.192674026,-0.21794863,-0.59818548,5.78777647,-0.121967912,8.025055885,1.333336473,-17.85586929,-11.08666325,-1.283691406,1.391113281,-1.09375
258,1212923696,0.746018529,-0.192807779,-0.218937874,-0.598622918,5.176791668,-0.010469363,8.160392761,3.234092474,-11.36952114,-12.38935184,-1.291503906,1.375488281,-1.082519531
259,1212932029,0.745286822,-0.193347216,-0.220283359,-0.598866582,4.691646576,-0.63880676,7.826861382,2.294485569,-19.62378693,-10.44497681,-1.314453125,1.357910156,-1.075683594
260,1212940362,0.744081914,-0.194660544,-0.221657574,-0.599431932,6.580345631,-0.077108674,8.529109001,-7.492503166,-26.29851913,-15.51214886,-1.319335938,1.342773438,-1.061035156
261,1212948695,0.74193126,-0.197462246,-0.222507596,-0.60086453,5.861320972,-3.155739784,8.159848213,-32.35857391,-34.33646011,-26.10123253,-1.339355469,1.331542969,-1.040527344
262,1212957028,0.739539981,-0.198060274,-0.224241316,-0.60296762,4.112434387,-4.471628189,8.278038979,-5.145194054,-23.49012566,-44.2147789,-1.346191406,1.314941406,-1.023925781
263,1212965361,0.737008631,-0.200209379,-0.22642599,-0.604538858,6.278271198,3.156392336,7.866129398,-16.05507469,-43.38734055,-36.26956177,-1.369140625,1.301269531,-1.01171875
264,1212973694,0.734941363,-0.20213823,-0.228360504,-0.605684817,6.347951889,-2.157880783,7.871967793,-13.14443493,-38.1856575,-28.27287674,-1.374023438,1.280761719,-0.995117188
265,1212982027,0.732517838,-0.203542754,-0.230689362,-0.607265949,4.439693928,0.391516954,8.078271866,-7.073543072,-38.27416611,-38.20721054,-1.396484375,1.264648438,-0.984375
266,1212990360,0.730446458,-0.205572173,-0.233322978,-0.608070612,4.498240948,0.776012003,8.189076424,-7.227432251,-47.05118561,-26.47611618,-1.400878906,1.246582031,-0.96875
267,1212998693,0.728599548,-0.207583368,-0.236333698,-0.608440578,6.0538311,1.433733344,8.034207344,-2.008494616,-51.76277161,-21.1963253,-1.420410156,1.227539063,-0.962402344
268,1213007026,0.727151275,-0.209480196,-0.239403456,-0.608322501,5.739318848,1.724732757,8.022482872,2.483241796,-50.94691086,-13.67304039,-1.428222656,1.212890625,-0.952148438
269,1213015359,0.725973845,-0.211660668,-0.242786422,-0.607632816,4.702412605,1.380068064,8.192075729,4.801209927,-57.753479,-5.498649597,-1.444824219,1.194824219,-0.943359375
270,1213023692,0.724989057,-0.214268431,-0.24666518,-0.60633111,5.960088253,1.173541307,8.34432888,7.39220953,-66.87041473,2.060071707,-1.447265625,1.173828125,-0.9296875
271,1213032025,0.724254012,-0.216589734,-0.25070715,-0.604724765,5.598745346,0.896083832,8.144385338,13.26821709,-66.70276642,5.872766495,-1.467285156,1.162597656,-0.919921875
272,1213040358,0.723499119,-0.219572917,-0.255210906,-0.602665305,5.73397398,0.512832344,8.329001427,12.1152544,-77.69555664,10.99490833,-1.471679688,1.140625,-0.909179688
273,1213048691,0.722727895,-0.222633794,-0.260054111,-0.600392938,5.925570488,0.162283763,8.368695259,14.75764465,-82.94469452,12.35376072,-1.494140625,1.125976563,-0.8984375
274,1213057024,0.721778691,-0.226073235,-0.265406072,-0.597902358,5.342439175,-0.205286309,8.116994858,15.51605892,-91.91794586,12.72057724,-1.496582031,1.108398438,-0.875976563
275,1213065357,0.720527828,-0.229941562,-0.271277934,-0.595294952,5.830563545,-0.40582177,8.10412693,14.937994,-102.5821762,11.47945023,-1.516601563,1.09375,-0.869628906
276,1213073690,0.71904242,-0.234009057,-0.277617931,-0.592576921,5.513504028,-0.442428321,7.900951862,16.54952431,-109.5792389,9.790161133,-1.521484375,1.078125,-0.84765625
277,1213082023,0.717243671,-0.238553688,-0.284540951,-0.58965373,5.954387188,-0.411631942,7.887009144,16.27561569,-121.586586,9.338933945,-1.545898438,1.061523438,-0.829589844
278,1213090356,0.715227723,-0.243221387,-0.291866392,-0.586607218,6.122903824,-0.641516209,7.836872101,18.17759895,-127.3294296,7.82015276,-1.549804688,1.044433594,-0.802734375
279,1213098689,0.712861359,-0.248282835,-0.299694568,-0.583411396,6.311343193,-0.686614692,7.828735828,17.70425987,-137.8363037,6.496227264,-1.570800781,1.02734375,-0.786132813
280,1213107022,0.710124314,-0.253666192,-0.308071941,-0.580060005,6.510482311,-0.713870227,7.637663364,18.41352463,-147.4002838,4.353390694,-1.574707031,1.010253906,-0.76171875
281,1213115355,0.706872582,-0.259485304,-0.31716904,-0.576544523,6.001192093,-0.596893787,7.195496559,18.71605301,-161.1204834,1.331830382,-1.592285156,0.995117188,-0.741210938
282,1213123688,0.703071058,-0.266056001,-0.327121079,-0.572624147,5.148526192,-0.673968613,8.715876579,18.07439423,-178.7911682,0.97891438,-1.602050781,0.977050781,-0.712402344
283,1213132021,0.698678315,-0.273042917,-0.337804019,-0.568494678,4.539217472,-0.172399446,9.339455605,18.50194168,-193.0011597,-2.300388098,-1.620605469,0.9609375,-0.684570313
284,1213140354,0.693240941,-0.281301975,-0.349623293,-0.563960016,6.985541344,-0.017524615,8.105379105,13.19695568,-219.832489,-5.098450184,-1.626464844,0.948242188,-0.650390625
285,1213148687,0.68704915,-0.290113986,-0.362216234,-0.559104443,8.654397011,-0.410593688,7.9893713,12.47663403,-236.7764587,-8.056461334,-1.647949219,0.934570313,-0.624023438
286,1213157020,0.679935098,-0.299695939,-0.375366002,-0.554050565,4.670148849,-0.638698995,8.529356003,6.846598148,-252.980072,-11.83813477,-1.65234375,0.920410156,-0.583007813
287,1213165353,0.670743644,-0.311543554,-0.390024573,-0.548566818,5.359966755,-0.86386764,9.200637817,-9.240570068,-297.2184143,-17.99202347,-1.674316406,0.908691406,-0.552246094
288,1213173686,0.660012603,-0.32450667,-0.405799955,-0.542592347,8.639883995,-0.860589385,8.417048454,-15.02449894,-325.9772644,-24.07040405,-1.680175781,0.895507813,-0.50390625
289,1213182019,0.647605717,-0.338649005,-0.422423333,-0.536175013,6.753865242,-0.83902216,8.031932831,-24.4538269,-354.1343994,-29.57325363,-1.698730469,0.888183594,-0.459960938
290,1213190352,0.632653356,-0.354106396,-0.441188902,-0.528878212,5.578852654,-3.737489223,8.844027519,-27.08658218,-401.5355835,-43.04573059,-1.704101563,0.873535156,-0.401367188
291,1213198685,0.614961982,-0.369447887,-0.461978078,-0.521447897,5.14773798,-5.530637741,7.490340233,-23.92021561,-435.8553772,-72.17302704,-1.71875,0.858886719,-0.345703125
292,1213207018,0.594498932,-0.38511157,-0.484655976,-0.513195932,6.606940746,-4.192657948,7.358827114,-21.95149231,-475.7366638,-92.87723541,-1.724121094,0.840820313,-0.27734375
293,1213215351,0.572407007,-0.40084368,-0.507400632,-0.504202902,9.543540955,-2.082344532,8.16814518,-25.73726463,-491.7645569,-97.9886322,-1.739257813,0.827148438,-0.215332031
294,1213223684,0.550247848,-0.415811688,-0.52812171,-0.49539569,13.18463802,1.297922969,5.74271059,-35.46735764,-469.8279419,-94.38048553,-1.733398438,0.808105469,-0.146484375
295,1213232017,0.527208686,-0.432439178,-0.546184719,-0.486550212,18.9027462,4.651542664,-2.965190411,-70.84951019,-467.770752,-72.54467773,-1.740234375,0.793457031,-0.086914063
296,1213240350,0.505013883,-0.452647626,-0.561632335,-0.473963499,33.35901642,-0.397570282,13.81430244,-81.24632263,-488.6005859,2.407093048,-1.722167969,0.782714844,-0.015136719
297,1213248683,0.490390062,-0.46385771,-0.572897673,-0.464911908,31.48196793,-7.74741888,9.566897392,-26.12206459,-320.4363708,-15.97672081,-1.71875,0.785644531,0.032226563
298,1213257016,0.478080124,-0.462212026,-0.58914113,-0.459035456,16.06117249,-11.57323074,8.891149521,82.07437134,-233.3043213,-155.9163055,-1.709472656,0.76953125,0.052734375
299,1213265349,0.467129081,-0.457482219,-0.60705632,-0.451646268,6.936236382,-4.929181576,10.19844055,133.8796387,-223.453064,-172.7329712,-1.724609375,0.752929688,0.065429688
300,1213273682,0.455532819,-0.455105036,-0.62389034,-0.442867249,4.481664658,2.116271019,10.54964447,119.4656372,-245.3896027,-141.7690735,-1.722167969,0.73828125,0.079101563
301,1213282015,0.442506105,-0.455726773,-0.638945878,-0.433878988,8.822546005,2.755429506,11.65690708,82.8155899,-265.9556885,-111.9057617,-1.734863281,0.733398438,0.099121094
302,1213290348,0.431365758,-0.458199769,-0.649604142,-0.426605463,12.82714272,0.183480352,13.33634567,41.92308807,-223.2059326,-67.66396332,-1.7265625,0.728515625,0.120605469
303,1213298681,0.422122329,-0.462910622,-0.65605098,-0.420862019,14.67819595,-0.409060091,14.67142773,2.366199732,-184.4673004,-18.67529106,-1.736328125,0.733398438,0.141113281
304,1213307014,0.416091263,-0.468662173,-0.658057809,-0.417354941,16.458992,-2.40811944,13.74815464,-29.21678352,-121.9647064,24.18600845,-1.731445313,0.740234375,0.158203125
305,1213315347,0.41463083,-0.470386684,-0.658378661,-0.416360974,15.38433266,-5.307358265,12.41267109,-9.018179893,-31.17828369,10.8639822,-1.745117188,0.750488281,0.161132813
306,1213323680,0.418854892,-0.467759311,-0.658258379,-0.415281922,15.87384701,-7.830438614,12.19159985,50.70597839,46.48435593,6.902052402,-1.750976563,0.766113281,0.148925781
307,1213332013,0.428619623,-0.463319302,-0.654937685,-0.41554597,14.48532391,-4.6666255,10.35487938,66.45922089,134.7509155,35.43531036,-1.779785156,0.790039063,0.122070313
308,1213340346,0.441137254,-0.4569754,-0.64966172,-0.417746872,7.515908241,-2.172325134,6.567884922,66.50361633,193.4002075,34.52349854,-1.7890625,0.809082031,0.080078125
309,1213348679,0.454113007,-0.450942606,-0.64360714,-0.419765949,-0.661411583,-1.707348824,3.325292826,64.74733734,200.1829071,46.46650314,-1.81640625,0.8359375,0.03515625
310,1213357012,0.464974284,-0.447731555,-0.637074351,-0.421275437,-5.276796341,0.496679932,2.669269085,35.67269516,163.9657288,64.81098938,-1.823730469,0.859863281,-0.00390625
311,1213365345,0.471955895,-0.448732108,-0.630783379,-0.421913147,-2.305200577,2.181155205,3.287198782,-6.016515732,99.69700623,83.889328,-1.841796875,0.894042969,-0.036132813
312,1213373678,0.477542758,-0.451964885,-0.624053597,-0.422183752,5.366289616,0.743056774,3.570825577,-28.56040955,74.17836761,99.67493439,-1.838378906,0.924316406,-0.057128906
313,1213382011,0.48501423,-0.453940809,-0.616288126,-0.42295298,9.792730331,-2.224788904,3.277274132,-18.79833031,108.6004715,103.5696106,-1.847167969,0.9609375,-0.080078125
314,1213390344,0.495563477,-0.452440172,-0.607618868,-0.424870938,9.72683239,-4.268204212,2.983501911,8.519424438,167.0220947,89.42411041,-1.84375,0.995117188,-0.112304688
315,1213398677,0.508475602,-0.447922409,-0.598130763,-0.427854031,7.167346954,-2.865548372,3.197371721,30.19062424,217.6924286,76.42063141,-1.852539063,1.029296875,-0.160644531
316,1213407010,0.522153854,-0.442468435,-0.587626755,-0.431593746,4.145456314,0.931573093,3.466749668,29.16550827,240.1282043,73.58870697,-1.845214844,1.060546875,-0.21484375
317,1213415343,0.534679174,-0.437923044,-0.576297343,-0.436147094,2.477828503,3.848507881,3.52379179,4.240424156,237.4376221,73.87236023,-1.847167969,1.094238281,-0.270507813
318,1213423676,0.545695901,-0.434525698,-0.564289689,-0.441567481,2.718810558,3.632904768,3.424318314,-24.30252647,227.6232452,71.01422882,-1.833007813,1.126464844,-0.318359375
319,1213432009,0.555653989,-0.431318223,-0.552009225,-0.447772563,4.121934414,1.482268333,3.24238801,-39.72307587,226.1701202,62.41986465,-1.837402344,1.16015625,-0.369140625
320,1213440342,0.565508127,-0.42715627,-0.539408445,-0.454728663,5.204305172,0.13424924,2.783051968,-40.76171494,236.9537201,50.10730362,-1.811523438,1.193359375,-0.415039063
321,1213448675,0.575231671,-0.42144087,-0.526868522,-0.462501079,5.311574936,0.258936733,2.549258471,-35.08063126,251.2295227,31.64731979,-1.810058594,1.225097656,-0.469238281
322,1213457008,0.584451437,-0.41471526,-0.514330268,-0.471055806,4.956219673,1.256114244,2.783229828,-35.67463684,257.3007202,14.33984375,-1.780761719,1.251953125,-0.525390625
323,1213465341,0.592636585,-0.407825917,-0.501939416,-0.480122894,5.124060154,1.932536125,3.120498657,-42.92061996,254.0068207,2.106291771,-1.768554688,1.282714844,-0.575195313
324,1213473674,0.599931061,-0.401009023,-0.489399642,-0.489656627,6.170591354,1.149122119,3.637279749,-52.6770134,249.9733734,-6.830812931,-1.732910156,1.306640625,-0.625
325,1213482007,0.606727183,-0.394063532,-0.47652185,-0.499523908,8.116250038,-0.067098983,3.949397326,-58.91930771,253.3531189,-11.35121536,-1.71484375,1.336914063,-0.672363281
326,1213490340,0.613834321,-0.386452168,-0.462755382,-0.509628117,9.812124252,-0.369641334,3.562607765,-59.25983429,267.4161987,-11.32177925,-1.671386719,1.358886719,-0.716796875
327,1213498673,0.621113896,-0.378066957,-0.448105782,-0.520081997,9.426345825,-0.092346549,3.09116888,-60.30251312,284.5011597,-12.7148819,-1.639160156,1.388183594,-0.76171875
328,1213507006,0.628057837,-0.369740456,-0.433055639,-0.530376911,7.945856094,-0.2125085,3.384144783,-64.30040741,283.3615723,-11.90717697,-1.581054688,1.406738281,-0.801757813
329,1213515339,0.634390473,-0.36227724,-0.41820094,-0.539827168,7.772091389,-0.933937192,4.04056406,-68.54308319,268.6863708,-4.328407288,-1.547363281,1.439941406,-0.840820313
330,1213523672,0.640589893,-0.355396062,-0.403185785,-0.548434973,9.291543961,-1.609499097,4.588246822,-70.45294189,259.5683899,5.576460361,-1.479003906,1.456542969,-0.864746094
331,1213532005,0.647160292,-0.348341197,-0.387972146,-0.556166232,10.88526917,-2.187482357,5.057489395,-63.92339325,261.632019,16.70689201,-1.431640625,1.484375,-0.896972656
332,1213540338,0.654392719,-0.340682775,-0.372222871,-0.563166618,11.48130894,-2.774736166,5.394838333,-55.35445786,269.8294983,27.00080299,-1.357421875,1.500976563,-0.916015625
333,1213548671,0.662096262,-0.332524389,-0.356290013,-0.569310725,11.25932217,-2.925557137,5.881540775,-45.9090004,274.9718018,37.27782822,-1.299804688,1.520507813,-0.939941406
334,1213557004,0.670256913,-0.324029684,-0.340329051,-0.574402213,11.09154224,-2.982147455,6.221834183,-35.5568428,274.0890808,48.28066254,-1.21484375,1.524902344,-0.946777344
335,1213565337,0.678619981,-0.315505952,-0.324402362,-0.578528643,11.16996193,-2.921012878,6.864881992,-29.86223602,271.8459473,59.12522507,-1.152832031,1.536132813,-0.96875
336,1213573670,0.687228441,-0.307116151,-0.308232367,-0.581713915,11.57035732,-2.405245066,7.32752037,-27.48155594,268.885437,70.86386871,-1.061035156,1.532714844,-0.969238281
337,1213582003,0.695915341,-0.298954159,-0.291977197,-0.584019721,12.04046535,-1.994407535,7.689762115,-26.55974197,265.6628418,81.78194427,-0.994628906,1.540039063,-0.977539063
338,1213590336,0.704648972,-0.290835172,-0.275593817,-0.585605621,12.30828857,-2.001368999,8.034380913,-24.57761383,262.612854,89.09585571,-0.901855469,1.530273438,-0.969726563
339,1213598669,0.713229299,-0.2825827,-0.259422362,-0.586644888,12.48490334,-1.904043436,8.304168701,-20.45939064,260.0274353,92.45355225,-0.833496094,1.52734375,-0.967285156
340,1213607002,0.721588612,-0.274105906,-0.24341546,-0.587303996,12.62303734,-1.087497711,8.546487808,-16.07201767,256.821991,92.32766724,-0.741699219,1.505859375,-0.944335938
341,1213615335,0.729378402,-0.265544832,-0.227922261,-0.587831318,12.82250309,-0.038042523,8.548749924,-13.15344906,251.1345825,87.45026398,-0.678710938,1.497070313,-0.928710938
342,1213623668,0.736409783,-0.256991953,-0.212837294,-0.588521242,12.96205902,0.716519952,8.592646599,-12.83859634,244.0941315,77.61432648,-0.600097656,1.468261719,-0.901855469
343,1213632001,0.74249959,-0.248790324,-0.198291913,-0.589473844,13.33842945,1.347404361,9.08803463,-16.50171661,235.0533905,67.06201172,-0.547363281,1.459472656,-0.876953125
344,1213640334,0.747801602,-0.241179124,-0.183988482,-0.590571702,14.53583527,1.734302163,9.710296631,-23.28269577,225.1023712,59.41220856,-0.478515625,1.429199219,-0.836914063
345,1213648667,0.752403975,-0.233963788,-0.169924185,-0.591841519,16.28569603,1.733286381,10.00870991,-28.54528999,219.2693176,52.73186493,-0.440429688,1.420898438,-0.801269531
346,1213657000,0.756423116,-0.226753995,-0.155485243,-0.593491673,17.14557838,2.180858135,10.08057594,-34.05177689,221.9949799,44.76697922,-0.393066406,1.386230469,-0.750976563
347,1213665333,0.75947094,-0.219931886,-0.140671715,-0.595857978,16.95108223,3.700931549,9.474962234,-46.06759262,223.8502502,31.88702965,-0.367675781,1.381835938,-0.709960938
348,1213673666,0.761353731,-0.214228302,-0.125651896,-0.598882318,17.35453987,5.243446827,7.672395706,-63.89271927,215.7266693,17.81669235,-0.332519531,1.351074219,-0.65625
349,1213681999,0.761880338,-0.209482446,-0.110866778,-0.602798223,17.65782928,4.785449028,4.978429794,-77.86720276,206.5130768,-1.284198999,-0.322753906,1.3515625,-0.610351563
350,1213690332,0.761022449,-0.20537819,-0.096543759,-0.60773772,17.39333534,3.448672771,2.062064648,-86.0039978,196.4902954,-24.19942284,-0.299316406,1.331542969,-0.555175781
351,1213698665,0.758994699,-0.201765239,-0.083538398,-0.613384247,17.36407471,1.917199373,-0.454365611,-84.67934418,179.7368164,-44.08462906,-0.312011719,1.333984375,-0.512695313
352,1213706998,0.755897105,-0.199534282,-0.07172291,-0.61940521,17.80824089,1.946165919,-3.40225482,-92.19740295,154.9580383,-59.0199852,-0.312011719,1.302246094,-0.458984375
353,1213715331,0.751782417,-0.199304983,-0.061473195,-0.625558317,18.03262901,2.498902321,-6.505574226,-102.8561249,121.5015564,-71.09074402,-0.338867188,1.311035156,-0.422363281
354,1213723664,0.747072399,-0.201237202,-0.053093988,-0.63132304,18.23423767,3.177865505,-9.127697945,-110.1551895,81.70652008,-75.72530365,-0.340332031,1.290527344,-0.381835938
355,1213731997,0.742588818,-0.204816461,-0.047361456,-0.635901332,18.41033173,3.181770802,-10.22541904,-102.8647079,37.39156342,-67.46289825,-0.364257813,1.306640625,-0.360839844
356,1213740330,0.739388406,-0.208325624,-0.045451704,-0.638624251,19.39968681,1.188592911,-9.934022903,-63.64585495,-5.476802826,-48.26300812,-0.362792969,1.29296875,-0.345703125
357,1213748663,0.737704217,-0.209966958,-0.046747554,-0.639939547,19.68009949,-0.56212002,-8.982936859,-11.52963734,-24.69900894,-30.82866096,-0.376953125,1.315917969,-0.350097656
358,1213756996,0.736997545,-0.209717259,-0.049810775,-0.640603781,17.60550117,-0.139319435,-6.526571274,26.688591,-27.04748535,-22.0398922,-0.365234375,1.306640625,-0.354492188
359,1213765329,0.73717016,-0.209269807,-0.05457921,-0.640162885,15.11981487,1.361326694,-3.685569048,46.7672081,-45.361866,-8.04808712,-0.371582031,1.331542969,-0.373535156
360,1213773662,0.738409996,-0.209769413,-0.061027423,-0.637984633,13.81595612,1.270973325,-1.33187747,56.58397675,-74.51875305,14.77581501,-0.360351563,1.319335938,-0.387695313
361,1213781995,0.740602314,-0.210688815,-0.068774104,-0.634342015,13.77501106,0.012692627,-0.189334691,67.43585968,-95.219841,34.66754913,-0.366210938,1.345703125,-0.415039063
362,1213790328,0.743152738,-0.210582629,-0.077204131,-0.63041234,12.58216381,-1.070125103,2.033929348,85.39080811,-93.17202759,37.71980667,-0.344726563,1.335449219,-0.441894531
363,1213798661,0.745636344,-0.210661605,-0.085776389,-0.626331985,10.97417641,0.983526468,8.187128067,84.45890045,-97.29318237,38.51144791,-0.350097656,1.360839844,-0.478027344
364,1213806994,0.74707216,-0.212468192,-0.093104564,-0.622955322,0.575602114,2.245945454,29.98520851,52.40251923,-97.95446777,27.87517357,-0.331542969,1.356933594,-0.512695313
365,1213815327,0.743744075,-0.211639956,-0.10091652,-0.625995636,-25.88189316,-7.001386642,35.31060791,61.24119949,-68.36296082,-83.61127472,-0.347167969,1.384765625,-0.541503906
366,1213823660,0.738967359,-0.213327542,-0.105810605,-0.630257189,-15.06376839,-13.15152073,24.11668968,4.646948338,-58.02178955,-96.60205841,-0.359863281,1.381347656,-0.552734375
367,1213831993,0.745378733,-0.214701176,-0.113552257,-0.620823026,10.44089031,-6.136532784,3.0037992,85.10256195,-108.7486725,130.7489624,-0.369140625,1.395507813,-0.5703125
368,1213840326,0.746826768,-0.214147389,-0.127501979,-0.616550922,20.2891922,6.046171188,-11.43719292,135.3439789,-148.1841583,14.00827122,-0.350097656,1.378417969,-0.612304688
369,1213848659,0.743855655,-0.21794273,-0.136759177,-0.616828799,27.8351059,14.97877693,-2.199211121,29.69879723,-131.4674377,-48.6308136,-0.375976563,1.408203125,-0.653808594
370,1213856992,0.74565798,-0.221816167,-0.145701706,-0.611198902,18.53860283,2.63315177,11.90876198,51.84103394,-137.2332916,53.28222275,-0.372070313,1.407714844,-0.691894531
371,1213865325,0.746122003,-0.222135589,-0.150575966,-0.609332323,3.060971737,-7.44562149,15.26665592,42.27465057,-57.25144958,8.832045555,-0.384765625,1.434570313,-0.734375
372,1213873658,0.745308042,-0.218527913,-0.157845587,-0.609793067,-6.634787083,-8.041899681,12.68873501,94.02104187,-43.88985825,-41.22405624,-0.381347656,1.435546875,-0.762695313
373,1213881991,0.744886339,-0.217329472,-0.167086005,-0.60827291,-3.090315819,2.389053345,6.794837475,91.22888947,-89.96413422,-18.30520248,-0.411132813,1.4453125,-0.794433594
374,1213890324,0.742963076,-0.220972121,-0.177316517,-0.606413662,5.823244572,12.32143974,7.697068214,46.35081863,-144.6049347,-19.30605507,-0.418945313,1.436523438,-0.809082031
375,1213898657,0.741872251,-0.224310666,-0.1869082,-0.603636563,15.05152416,7.042678356,10.80787754,48.76099777,-136.7613373,-1.708219409,-0.45703125,1.44921875,-0.8359375
376,1213906990,0.742221475,-0.224796981,-0.191554442,-0.601566136,13.41972637,-5.239511967,10.01692867,39.50009918,-56.33503723,10.92944908,-0.463378906,1.439453125,-0.852050781
377,1213915323,0.742025852,-0.221034735,-0.194962695,-0.602106392,5.864848614,-10.33273506,9.943132401,63.99369049,-2.332570314,-27.55803871,-0.489257813,1.454101563,-0.879394531
378,1213923656,0.742162883,-0.216635019,-0.198624209,-0.602339923,3.759084702,-5.213288307,9.427733421,74.47702789,0.775846481,-24.16831207,-0.495117188,1.448730469,-0.898925781
379,1213931989,0.742528915,-0.213089824,-0.201830685,-0.602087438,6.610950947,1.991752505,8.284310341,63.9475708,-2.934505939,-13.604949,-0.522949219,1.461914063,-0.932128906
380,1213940322,0.742924333,-0.210287377,-0.203588635,-0.601993084,8.785434723,2.455583334,9.754013062,44.10839081,6.669280052,-8.738209724,-0.524902344,1.45703125,-0.949707031
381,1213948655,0.743315339,-0.207269803,-0.203772172,-0.602494657,6.632615089,-0.758855522,8.985831261,31.50093269,25.82898712,-10.84508419,-0.548339844,1.472167969,-0.972167969
382,1213956988,0.743424594,-0.205016792,-0.203979507,-0.603060126,5.86563158,-0.139976263,7.608819008,22.96539497,19.05381775,-11.80389404,-0.545410156,1.470703125,-0.990722656
383,1213965321,0.74368012,-0.203367829,-0.203940481,-0.603316665,6.169174194,0.939291418,7.743052959,15.96150494,15.69027615,-4.99790287,-0.570800781,1.488769531,-1.008789063
384,1213973654,0.743814051,-0.202026337,-0.203820482,-0.603642583,5.509910107,0.900404334,7.236908436,11.67070675,14.22009277,-5.671095371,-0.573242188,1.485351563,-1.015136719
385,1213981987,0.743940234,-0.201112539,-0.203605384,-0.60386467,5.271172523,1.247129798,7.783922195,6.715860844,10.93280888,-3.169531107,-0.592285156,1.504394531,-1.034179688
386,1213990320,0.74402386,-0.200572759,-0.203251958,-0.60406059,4.981447697,1.444351554,8.531599045,1.742216229,9.435041428,-1.854726553,-0.592773438,1.500976563,-1.029296875
387,1213998653,0.74411273,-0.200676143,-0.202888131,-0.604039252,6.034959793,-0.192843005,9.067637444,-4.348682404,3.23137641,2.270483971,-0.618164063,1.513671875,-1.036621094
388,1214006986,0.744197786,-0.200469896,-0.202558562,-0.604113221,6.213338375,-0.974242508,8.432051659,-1.139141798,6.068562508,0.287020296,-0.619140625,1.512207031,-1.030761719
389,1214015319,0.744204581,-0.200297013,-0.202220529,-0.604275525,5.980107784,0.255080163,8.696964264,-2.045962572,5.537528515,-1.134838581,-0.645996094,1.521972656,-1.042480469
390,1214023652,0.744285822,-0.200095668,-0.201746568,-0.604400575,3.940287113,-0.427288353,8.271910667,-2.542751074,7.62091589,0.144297823,-0.647949219,1.520507813,-1.034179688
391,1214031985,0.744198322,-0.20051451,-0.201690465,-0.604388416,5.485124111,-0.563974321,7.985989094,-5.534211159,-3.005471468,0.734910786,-0.671386719,1.533203125,-1.048828125
392,1214040318,0.744241297,-0.200492725,-0.20132333,-0.604464829,5.293702126,-0.924345136,7.94492197,-3.466912508,4.772943974,0.536195636,-0.672851563,1.533203125,-1.04296875
393,1214048651,0.74413681,-0.200527906,-0.201193824,-0.604624927,3.996237993,-1.194022536,7.46091938,-2.741363525,1.362792492,-2.030670643,-0.698730469,1.544433594,-1.055175781
394,1214056984,0.744043589,-0.200967267,-0.201238364,-0.604579091,7.197490215,-1.56165731,7.67677784,-4.803233624,-4.002660751,0.789674222,-0.697265625,1.546875,-1.048828125
395,1214065317,0.744001031,-0.200348228,-0.20087032,-0.604959309,4.855808735,-1.742436171,7.836148262,1.530309677,10.02122498,-4.918343067,-0.720703125,1.557617188,-1.056640625
396,1214073650,0.743789852,-0.200181261,-0.200971052,-0.605240583,4.195281506,-1.281736732,7.776704788,0.645952582,1.029295206,-5.369921684,-0.721191406,1.556152344,-1.05078125
397,1214081983,0.743639946,-0.200055599,-0.201043189,-0.605442464,6.890853405,-1.254581094,8.179379463,0.341399312,0.625819743,-3.837626696,-0.748046875,1.56640625,-1.059570313
398,1214090316,0.743447721,-0.199292541,-0.200982213,-0.605950058,5.393498898,-0.552319586,8.159379959,4.826350212,8.303611755,-8.735095978,-0.750488281,1.560546875,-1.05078125
399,1214098649,0.743230999,-0.198823109,-0.201148242,-0.606315017,4.969429016,-0.564236522,8.091276169,4.00607872,2.792143583,-7.266501904,-0.776367188,1.568847656,-1.064941406
400,1214106982,0.743004739,-0.198425889,-0.201343238,-0.606657565,5.965359688,-0.847903311,8.158453941,3.579115391,2.081169367,-7.025036812,-0.781738281,1.56640625,-1.060058594
401,1214115315,0.742803514,-0.197878852,-0.201574534,-0.607005835,5.580584049,-0.677076101,7.751460075,5.432485104,2.769168139,-7.361174107,-0.805664063,1.575683594,-1.076660156
402,1214123648,0.742566526,-0.197337195,-0.201880738,-0.607370019,5.112839222,-0.39210856,7.509613514,5.894898891,2.167438269,-8.03339386,-0.806152344,1.569335938,-1.0703125
403,1214131981,0.74235785,-0.196991265,-0.202114195,-0.607659757,4.384492397,-0.333490461,7.455078125,3.538261175,0.887981534,-6.274617195,-0.833984375,1.57421875,-1.083496094
404,1214140314,0.742125809,-0.196920499,-0.202487156,-0.607841909,5.313045502,-0.297283739,7.493123055,2.16287899,-2.938285828,-5.00540638,-0.836425781,1.569335938,-1.074707031
405,1214148647,0.741994739,-0.196482792,-0.202676043,-0.608080685,5.080897331,-0.549038053,7.950431347,4.452433109,2.188441992,-5.243208885,-0.863769531,1.573730469,-1.083496094
406,1214156980,0.741804004,-0.196277931,-0.202921793,-0.608297527,4.760577202,-1.013211966,8.257296562,2.480623484,-0.323456585,-5.045696735,-0.866699219,1.569335938,-1.086425781
407,1214165313,0.741636395,-0.195953161,-0.203137636,-0.608534455,5.843813896,-0.749860346,8.25805378,3.430706501,0.863391876,-5.285778999,-0.892089844,1.5703125,-1.094238281
408,1214173646,0.741429031,-0.19550623,-0.203279957,-0.608883142,5.382551193,-0.38561812,8.12706089,3.672274351,3.051129103,-6.922758579,-0.905761719,1.567871094,-1.095214844
409,1214181979,0.74123472,-0.195232928,-0.203389719,-0.609170675,5.107985497,-0.515127659,7.952367783,1.806123853,1.575544357,-5.595839977,-0.932617188,1.563964844,-1.108886719
410,1214190312,0.741012633,-0.194979399,-0.203592435,-0.609454334,5.0955019,-0.237441272,7.698534489,2.346251011,0.589088976,-6.005385399,-0.933105469,1.559082031,-1.103515625
411,1214198645,0.740804553,-0.194715172,-0.203806624,-0.609720111,5.202563763,-0.021769715,7.675883293,2.61225462,0.340144217,-5.744350433,-0.965820313,1.5625,-1.117675781
412,1214206978,0.74061799,-0.194411173,-0.20398356,-0.609984696,4.429510593,-0.233121723,7.829355717,2.790530205,1.313510776,-5.59130621,-0.971191406,1.554199219,-1.114257813
413,1214215311,0.74043113,-0.19433783,-0.204278484,-0.610136092,5.052507877,-0.499549866,7.689644337,1.72241652,-2.330511332,-4.082780838,-1,1.550292969,-1.124511719
414,1214223644,0.740262091,-0.194029585,-0.204455525,-0.610380232,5.540421963,-0.584212065,7.969893456,2.937274218,1.330569983,-5.241262436,-1.0078125,1.541503906,-1.120117188
415,1214231977,0.740064263,-0.193659008,-0.204608083,-0.6106866,4.593624115,-0.765841782,7.917327404,3.089832544,1.99648881,-6.205791473,-1.043457031,1.537109375,-1.129394531
416,1214240310,0.73983866,-0.193441957,-0.204888567,-0.610934496,5.659608364,-0.740853906,7.991035461,2.714737415,-0.644556582,-5.773832798,-1.054199219,1.521972656,-1.128417969
417,1214248643,0.7395823,-0.192924753,-0.205055788,-0.611352205,4.866584778,-0.730710685,8.098443031,4.234327793,3.209962845,-8.283746719,-1.084960938,1.51953125,-1.135253906
418,1214256976,0.739251673,-0.192518756,-0.205346867,-0.611782193,4.279271603,-0.748189569,8.26390934,3.93710041,1.014259696,-9.071256638,-1.099121094,1.504394531,-1.135253906
419,1214265309,0.738914788,-0.192127898,-0.205771148,-0.612169385,4.705392361,-0.583403349,8.047246933,4.983698368,-0.775342941,-8.975663185,-1.132324219,1.5,-1.136230469
420,1214273642,0.738558769,-0.191802308,-0.206394836,-0.612491071,5.333099365,-0.338502467,7.872354507,6.157752514,-3.411841869,-8.838012695,-1.146972656,1.48046875,-1.130859375
421,1214281975,0.738176465,-0.191481382,-0.206922799,-0.612874269,5.280553818,-0.252642363,8.283978462,5.036514759,-2.557504654,-9.394148827,-1.183105469,1.472167969,-1.131347656
422,1214290308,0.737777293,-0.19105047,-0.207518399,-0.613287568,3.183715582,-0.714526892,8.244346619,6.618398666,-2.130336046,-10.35119915,-1.198730469,1.454589844,-1.122558594
423,1214298641,0.737321973,-0.191192329,-0.208645105,-0.613408566,5.067263603,-0.290662408,7.733319283,5.947639465,-13.43205643,-7.601102352,-1.228027344,1.441894531,-1.118652344
424,1214306974,0.736877263,-0.191165343,-0.209521905,-0.613652408,6.335532188,-0.09263806,8.300242424,5.2477808,-8.976176262,-8.611455917,-1.241210938,1.419921875,-1.107910156
425,1214315307,0.736409366,-0.190959439,-0.210328504,-0.614002347,3.545414209,-0.776743412,8.386427879,6.08078146,-6.688542843,-10.18639755,-1.269042969,1.41015625,-1.097167969
426,1214323640,0.735830307,-0.191222355,-0.211599231,-0.61417824,5.31678915,-0.353824288,8.145533562,5.484995365,-15.98589897,-9.244231224,-1.27734375,1.387207031,-1.090332031
427,1214331973,0.735245824,-0.19126156,-0.212622851,-0.614512444,5.552542686,-0.432905138,8.432749748,5.165816307,-11.33448124,-10.87588406,-1.3046875,1.377441406,-1.083984375
428,1214340306,0.73458004,-0.191481292,-0.213846117,-0.614815712,4.604216576,-0.673266292,8.178302765,4.92289114,-15.07111263,-11.26975536,-1.30859375,1.358886719,-1.068359375
429,1214348639,0.733804166,-0.191969484,-0.215370983,-0.615057707,6.006155014,-0.121765688,7.939068317,4.632580757,-20.99845886,-11.56188869,-1.33203125,1.345214844,-1.058105469
430,1214356972,0.732769012,-0.192664519,-0.21668756,-0.615611613,4.573176861,-0.43414256,8.308076859,-0.804646075,-20.47154999,-15.76106453,-1.335449219,1.325683594,-1.045898438
431,1214365305,0.730745137,-0.195548698,-0.217960387,-0.616657794,4.906965733,-2.383206367,8.35506916,-27.34098625,-40.32420731,-22.43333435,-1.359375,1.313476563,-1.030761719
432,1214373638,0.728579819,-0.196436033,-0.219669119,-0.618329227,4.943256378,-4.504234314,8.134982109,-5.815338135,-26.40127754,-37.09004211,-1.36328125,1.293945313,-1.015136719
433,1214381971,0.726232708,-0.198122531,-0.222111598,-0.619678319,5.602385044,3.316454411,7.727117062,-7.11772728,-42.08119202,-34.95683289,-1.390136719,1.277832031,-1.005859375
434,1214390304,0.72451359,-0.199823096,-0.22395888,-0.620479345,6.939254761,-1.479047537,8.099508286,-8.917610168,-35.72464371,-22.50170898,-1.388183594,1.260253906,-0.991210938
435,1214398637,0.722526491,-0.200906143,-0.226242915,-0.621617019,3.842041254,0.550593734,8.240064621,-0.839585066,-34.81383133,-31.20859718,-1.411621094,1.245605469,-0.983398438
436,1214406970,0.720902622,-0.202766478,-0.228868783,-0.621937156,5.735205173,1.317191482,8.333197594,-2.069327116,-45.8800354,-18.53404045,-1.412597656,1.224609375,-0.967773438
437,1214415303,0.719562471,-0.204244152,-0.231637821,-0.621980608,5.009208202,1.407048345,8.361803055,4.586686134,-44.00949097,-14.94242573,-1.433105469,1.2109375,-0.966308594
438,1214423636,0.718451917,-0.206472382,-0.234968528,-0.621278584,6.058215618,1.647680998,7.972980499,4.999183655,-57.25262451,-4.812852859,-1.435546875,1.19140625,-0.951660156
439,1214431969,0.717632353,-0.208440974,-0.238519609,-0.620214462,6.600636482,1.533220053,8.545564651,11.42770958,-57.39612961,-0.189161658,-1.449707031,1.180175781,-0.945800781
440,1214440302,0.71701014,-0.210565731,-0.242391542,-0.61871326,3.718334436,0.922181308,8.509799004,14.63329792,-62.41168594,5.385911465,-1.449707031,1.156738281,-0.930664063
441,1214448635,0.716306806,-0.213697985,-0.247136414,-0.616573274,5.371973038,0.458171755,8.291332245,14.0093956,-81.79858398,11.83727074,-1.470214844,1.141601563,-0.922363281
442,1214456968,0.715586185,-0.216722697,-0.252171159,-0.614311695,5.931139469,0.375766426,8.540055275,17.89400673,-84.07826996,11.66130447,-1.4765625,1.125488281,-0.909179688
443,1214465301,0.714712918,-0.22005783,-0.257665813,-0.611857712,4.428988457,-0.132029563,8.474338531,18.93210411,-92.40945435,11.9839077,-1.497558594,1.104980469,-0.898925781
444,1214473634,0.71356076,-0.224079385,-0.263840169,-0.60910511,5.250032902,-0.340571374,8.215652466,18.12278557,-106.6845016,12.93595219,-1.50390625,1.092285156,-0.875488281
445,1214481967,0.712171674,-0.228331313,-0.270425797,-0.606256902,6.385945797,-0.448329091,8.007217407,18.92026901,-113.8772354,11.46764183,-1.525878906,1.07421875,-0.868164063
446,1214490300,0.710478485,-0.232695505,-0.277384222,-0.603433669,6.57333231,-0.320130318,7.972326756,19.88314247,-119.4548874,7.923059464,-1.530761719,1.056640625,-0.845703125
447,1214498633,0.7085585,-0.237091497,-0.28474617,-0.600544155,5.842004299,-0.678386569,7.404659748,22.44654846,-124.8018494,5.530179501,-1.5546875,1.038085938,-0.828125
448,1214506966,0.706228375,-0.241969213,-0.292683452,-0.597519875,5.575185776,-0.63071996,6.849367142,21.69658089,-136.3729706,3.452331781,-1.55859375,1.020996094,-0.8046875
449,1214515299,0.703557134,-0.247114256,-0.301189601,-0.594329953,6.291880608,-0.395115197,7.318720818,23.30385399,-146.076767,1.455006242,-1.583007813,1.007324219,-0.781738281
450,1214523632,0.700827479,-0.252076149,-0.30998075,-0.59094125,4.354545593,-0.525108039,8.45657444,28.03676033,-148.2048645,1.158721566,-1.586425781,0.985839844,-0.7578125
451,1214531965,0.697589457,-0.25788331,-0.3196477,-0.58710444,5.502326012,0.159888834,8.48292923,27.14902306,-167.2861633,1.929069519,-1.607421875,0.970214844,-0.741210938
452,1214540298,0.693906486,-0.264145195,-0.329986274,-0.582950711,9.068896294,0.293618411,7.815349579,28.0319519,-180.4408722,0.978121221,-1.612792969,0.952636719,-0.712402344
453,1214548631,0.690031588,-0.270100206,-0.340607911,-0.578696787,7.043182373,-0.485508889,8.231525421,32.97912979,-181.9564972,-2.009010792,-1.633300781,0.939453125,-0.685058594
454,1214556964,0.685220182,-0.277085781,-0.352270335,-0.574111283,3.698708057,-0.957767725,8.88373661,29.56388283,-205.6236877,-5.370971203,-1.637207031,0.919921875,-0.657226563
455,1214565297,0.678735256,-0.285872221,-0.365634769,-0.569129288,6.532676697,-0.507004976,7.937731266,21.56884003,-245.5327606,-12.59091568,-1.659667969,0.909179688,-0.628417969
456,1214573630,0.671090305,-0.295526475,-0.37997359,-0.563847065,9.358680725,-0.085041508,8.456513405,18.0532608,-268.4205322,-18.35554123,-1.659667969,0.892578125,-0.590820313
457,1214581963,0.662289441,-0.306011498,-0.3949458,-0.55834502,6.007561684,-1.690393806,8.841365814,11.73949528,-287.6612549,-23.50399399,-1.685058594,0.881347656,-0.561035156
458,1214590296,0.651073694,-0.318350554,-0.411690205,-0.552511156,4.626319408,-1.691237688,8.152935028,0.101403952,-332.5542908,-36.44176102,-1.687988281,0.865722656,-0.508300781
459,1214598629,0.637181461,-0.332603067,-0.430087745,-0.546260893,7.619636536,-1.475520492,7.894744873,-13.83167362,-378.8905945,-49.42746353,-1.710449219,0.852050781,-0.466308594
460,1214606962,0.620998383,-0.347029179,-0.449649453,-0.540137529,7.583860397,-3.927640915,7.88036108,-17.81951714,-403.3898621,-72.07654572,-1.712402344,0.837890625,-0.407714844
461,1214615295,0.602136016,-0.360621095,-0.471202761,-0.53418541,5.4932127,-5.790906429,8.303780556,-9.764738083,-429.9495239,-108.0854721,-1.729492188,0.818359375,-0.3515625
462,1214623628,0.581044555,-0.373340249,-0.494259536,-0.527932584,4.65258503,-5.064984798,7.721021652,-0.594161868,-451.9699707,-135.1325989,-1.73828125,0.793457031,-0.286621094
463,1214631961,0.558869958,-0.386127383,-0.517175913,-0.520672858,9.892482758,-0.68434453,7.245447159,-0.877211452,-463.8475037,-133.72612,-1.756347656,0.770019531,-0.230957031
464,1214640294,0.5361588,-0.400041312,-0.536776006,-0.514172614,18.72914314,4.773534298,1.90783143,-41.52791977,-446.257782,-117.841362,-1.750976563,0.751464844,-0.164550781
465,1214648627,0.513431609,-0.41700384,-0.553361535,-0.50624907,31.02047729,4.902978897,3.311584949,-74.9210434,-453.4795227,-68.29919434,-1.763671875,0.733398438,-0.108886719
466,1214656960,0.497470945,-0.433243454,-0.563911438,-0.496817857,40.03487015,-4.064005852,13.19775867,-61.55628204,-363.0105286,18.51133347,-1.744140625,0.729980469,-0.050292969
467,1214665293,0.485437393,-0.436234504,-0.574394941,-0.494086832,24.1084671,-10.6143961,9.868774414,0.072222598,-201.5722351,-102.7786026,-1.750488281,0.719726563,-0.028808594
468,1214673626,0.474216789,-0.432498097,-0.58767128,-0.492653787,10.30194569,-4.135320187,12.90546322,58.58475876,-160.3849945,-175.8948517,-1.749511719,0.697265625,-0.014160156
469,1214681959,0.463361859,-0.431287318,-0.598861873,-0.490563929,4.691132069,2.877678633,14.50646305,35.46596909,-164.7565613,-136.2369232,-1.766601563,0.677246094,-0.009277344
470,1214690292,0.45168364,-0.434813857,-0.607414901,-0.487818748,6.273781776,3.827753544,13.78271866,-11.9998312,-190.7089996,-83.07089996,-1.758789063,0.66796875,0.004882813
471,1214698625,0.441082776,-0.440825641,-0.613237977,-0.484828949,10.27695274,-0.278098077,12.77688885,-37.26664734,-182.7518158,-37.1266098,-1.771972656,0.658691406,0.023925781
472,1214706958,0.433511376,-0.445885956,-0.61697197,-0.482286602,11.73745918,-4.081470966,11.89822292,-30.82198715,-135.6607819,-15.10412979,-1.767578125,0.666992188,0.046875
473,1214715291,0.428878993,-0.448900998,-0.619300604,-0.480644107,11.79850674,-5.197835445,10.97934723,-17.5731678,-83.0761261,-9.607217789,-1.777832031,0.668457031,0.049316406
474,1214723624,0.427565068,-0.450690478,-0.620100379,-0.479106456,12.42299938,-5.650244236,10.20562744,-0.836613238,-37.28566742,10.58482838,-1.779296875,0.677246094,0.046875
475,1214731957,0.42987901,-0.451065093,-0.618784964,-0.478383452,10.21228695,-4.473391533,8.776859283,9.064235687,20.69377708,30.86530685,-1.799316406,0.693359375,0.040527344
476,1214740290,0.43424198,-0.450943232,-0.616121054,-0.477996081,6.224506855,-2.816902876,7.236606598,13.00157261,51.16991806,46.35242081,-1.799804688,0.712402344,0.021972656
477,1214748623,0.439614207,-0.451611727,-0.612424076,-0.477204889,3.148582697,-2.122071981,5.838212967,11.15109634,58.47064209,68.64796448,-1.813964844,0.731445313,0.005371094
478,1214756956,0.445313931,-0.453275412,-0.608050466,-0.475933939,1.577048182,-1.513136506,5.005167961,6.784260273,55.50182343,86.12058258,-1.8125,0.759277344,-0.01171875
479,1214765289,0.450800419,-0.455458969,-0.60367465,-0.474251747,1.811092019,-1.214350343,4.304505348,5.680305004,48.07347107,91.76457977,-1.821289063,0.783691406,-0.023925781
480,1214773622,0.456423998,-0.457105905,-0.599787891,-0.472215205,3.156926155,-1.966118455,4.205376148,16.01203728,47.14036942,87.17385101,-1.818359375,0.811523438,-0.041503906
481,1214781955,0.462979436,-0.457043231,-0.596465111,-0.470098078,4.877995491,-2.794626474,4.728520393,36.91183853,62.19991684,76.24869537,-1.830078125,0.842285156,-0.0625
482,1214790288,0.470911205,-0.454820663,-0.592823923,-0.468979686,5.827257156,-1.414003372,5.621371269,49.06945801,95.429039,62.91035843,-1.825195313,0.868652344,-0.088867188
483,1214798621,0.479830503,-0.450791508,-0.588057339,-0.469829381,5.443434715,1.745606661,5.760910511,43.63693237,135.0565796,49.00757599,-1.841796875,0.893554688,-0.119140625
484,1214806954,0.489008158,-0.445913523,-0.581661046,-0.472973377,3.735756159,3.993070364,5.459946156,21.76633263,167.2655487,38.61448669,-1.836425781,0.920410156,-0.155761719
485,1214815287,0.497326881,-0.441223115,-0.574097037,-0.477914095,2.034167051,3.667981148,5.002474785,-6.739274025,178.3891602,29.76684189,-1.850585938,0.944335938,-0.195800781
486,1214823620,0.50475049,-0.436777681,-0.56589365,-0.483960629,2.332680225,1.872306466,4.190859795,-26.75819016,180.4402466,21.98763847,-1.841308594,0.966796875,-0.231933594
487,1214831953,0.51196748,-0.431671768,-0.557293475,-0.490891069,3.321967125,0.594077587,3.526125669,-32.9535408,191.6468658,11.86876678,-1.858886719,0.9921875,-0.264160156
488,1214840286,0.51919657,-0.425735325,-0.548238397,-0.498618156,3.733315945,0.606272757,3.393193007,-36.18138885,204.9163513,2.539402485,-1.846679688,1.012207031,-0.300292969
489,1214848619,0.526350141,-0.419557363,-0.538599551,-0.506792784,3.914349318,1.352522731,3.720832109,-42.30669022,213.1552429,0.561372101,-1.864257813,1.034179688,-0.343261719
490,1214856952,0.533460438,-0.413612962,-0.528013766,-0.515312433,4.397223949,1.704446435,4.021960735,-53.36112976,219.6921997,4.821904659,-1.850585938,1.059082031,-0.381347656
491,1214865285,0.540662169,-0.407931566,-0.516337991,-0.524091899,5.124336243,1.323116899,3.680231333,-64.42218018,228.3273468,11.80735302,-1.859375,1.087890625,-0.424316406
492,1214873618,0.548149884,-0.402283311,-0.503763616,-0.532844543,5.195827484,0.162544191,3.132573366,-69.30426788,236.2902832,19.21459198,-1.837402344,1.113769531,-0.462402344
493,1214881951,0.555770516,-0.396566123,-0.490914643,-0.541164041,4.779780865,-0.967858493,3.011087179,-67.10746002,237.7509918,24.62469673,-1.833007813,1.151367188,-0.508789063
494,1214890284,0.563445508,-0.390833974,-0.478144735,-0.548777759,4.913428783,-1.390473485,3.448717594,-61.28762436,233.415741,29.76292229,-1.807617188,1.181640625,-0.549316406
495,1214898617,0.571204305,-0.385190994,-0.465373337,-0.555682182,6.065749168,-1.353041887,4.167269707,-56.93174362,229.8532104,36.61421204,-1.794921875,1.219726563,-0.595703125
496,1214906950,0.579406977,-0.379318029,-0.452312678,-0.561978579,7.675725937,-1.463192463,4.582296371,-51.033638,233.1448212,44.71183014,-1.755371094,1.255371094,-0.632324219
497,1214915283,0.588188887,-0.37291196,-0.438775986,-0.56784457,8.629953384,-1.656705856,4.719492912,-44.82509232,242.7745972,51.91613007,-1.73046875,1.297851563,-0.685058594
498,1214923616,0.597387433,-0.365840375,-0.424812913,-0.573432207,8.622865677,-1.843904138,4.989310265,-38.89032745,252.1539154,55.45825958,-1.67578125,1.331054688,-0.723144531
499,1214931949,0.606656551,-0.358436644,-0.410697162,-0.578636587,8.532968521,-1.939341784,5.509186268,-34.83572769,254.8672028,58.12513733,-1.637207031,1.368164063,-0.767089844
500,1214940282,0.616137266,-0.350888103,-0.396388054,-0.583206713,9.254836082,-2.104530573,5.908800125,-30.47373199,255.3500366,65.09648132,-1.566894531,1.401855469,-0.801757813
501,1214948615,0.625943184,-0.343008041,-0.381772518,-0.587189555,10.03063297,-2.466240168,6.127969265,-25.41969872,259.8958435,72.49214172,-1.51953125,1.435546875,-0.839355469
502,1214956948,0.636060476,-0.334807515,-0.366836607,-0.590561926,10.34639168,-2.869291544,6.469662189,-20.50434494,263.6482849,79.94525909,-1.438476563,1.459472656,-0.8671875
503,1214965281,0.646413803,-0.326619029,-0.351699769,-0.593108773,10.61357975,-3.03665638,6.955157757,-17.06001472,263.0457458,90.21478271,-1.380859375,1.486328125,-0.899414063
504,1214973614,0.657013893,-0.318549216,-0.336313665,-0.59477216,11.21755409,-2.767489433,7.45987606,-14.69016647,261.1772156,101.6303711,-1.288574219,1.500976563,-0.915039063
505,1214981947,0.667729437,-0.310561836,-0.320619315,-0.595729649,11.75272751,-2.115040064,7.804903984,-14.26184082,261.0721436,110.830246,-1.224121094,1.521484375,-0.935058594
506,1214990280,0.678453803,-0.302585334,-0.304743707,-0.596049905,12.14475441,-1.821884274,8.200084686,-12.92340946,259.6270447,117.4271011,-1.126464844,1.521484375,-0.940429688
507,1214998613,0.688945889,-0.294490516,-0.288939625,-0.595940113,12.50889397,-1.770885706,8.385237694,-10.47317505,257.506012,118.8898697,-1.057617188,1.533691406,-0.956542969
508,1215006946,0.69900012,-0.28610006,-0.273363382,-0.595667362,12.79852009,-1.355561972,8.654036522,-6.854867458,255.0396423,114.6038818,-0.958984375,1.52734375,-0.945800781
509,1215015279,0.70854634,-0.277638227,-0.25814274,-0.595183253,13.05144405,-0.672372818,9.117560387,-4.534863472,249.7925873,110.9508286,-0.897460938,1.530273438,-0.957519531
510,1215023612,0.717613876,-0.269383639,-0.24303855,-0.594471693,13.59953976,0.245352566,9.601918221,-6.545258999,244.0768127,109.4022217,-0.806640625,1.515136719,-0.945800781
511,1215031945,0.726124346,-0.261408597,-0.227944151,-0.593676686,14.41961956,1.159844518,9.715966225,-11.08569527,239.8410645,106.7067261,-0.745605469,1.509277344,-0.941894531
512,1215040278,0.734083652,-0.253419071,-0.212846339,-0.592956841,14.98812008,1.591027379,9.334963799,-13.11418915,238.2340851,101.2976074,-0.659179688,1.489257813,-0.916015625
513,1215048611,0.741344273,-0.245284468,-0.197931543,-0.592510521,14.76216412,1.775229573,9.222809792,-13.46486664,236.7776337,91.90007019,-0.599121094,1.483886719,-0.895019531
514,1215056944,0.747749925,-0.237270191,-0.183518887,-0.592364132,14.65196419,1.870166063,9.82816124,-14.23634052,229.0839691,80.40062714,-0.53125,1.454101563,-0.862792969
515,1215065277,0.75328064,-0.229427755,-0.169657558,-0.59257859,15.67938519,1.968571067,10.25666046,-15.34178543,221.2602692,68.30706787,-0.484863281,1.448730469,-0.836914063
516,1215073610,0.758062243,-0.221498802,-0.155679271,-0.593334198,16.73181152,2.468956709,10.36339092,-18.97197151,222.8864441,56.66596603,-0.425292969,1.420410156,-0.790039063
517,1215081943,0.761844158,-0.213652045,-0.14114435,-0.595000923,16.52680397,3.945504189,9.245695114,-29.41855431,228.9048309,40.97901154,-0.398925781,1.412597656,-0.756347656
518,1215090276,0.764288485,-0.206825808,-0.126493871,-0.597567439,16.30345726,5.096800327,7.505655766,-46.68696213,221.5964966,22.84889984,-0.359375,1.383789063,-0.705566406
519,1215098609,0.765246093,-0.201136872,-0.112322807,-0.601105273,16.75848961,4.256619453,4.642344952,-60.66567993,207.6008606,1.117402792,-0.344238281,1.377929688,-0.663574219
520,1215106942,0.764938414,-0.196208566,-0.098790601,-0.605485737,17.03484344,2.530788422,1.388344646,-68.16070557,194.7955933,-18.86859703,-0.324707031,1.352050781,-0.612792969
521,1215115275,0.763415873,-0.192367256,-0.086417444,-0.610511661,17.40286064,1.739615679,-1.288614511,-74.12771606,173.813324,-37.36071396,-0.327636719,1.357421875,-0.572265625
522,1215123608,0.760976493,-0.190688416,-0.075496249,-0.615511596,18.78243637,2.508496523,-4.577198029,-87.01525879,139.1361847,-46.10090637,-0.324707031,1.335449219,-0.529296875
523,1215131941,0.758258402,-0.191175267,-0.066753745,-0.619711101,20.13699722,3.222037792,-8.350927353,-91.15583038,95.73442841,-43.50236511,-0.336425781,1.350097656,-0.5
524,1215140274,0.755848348,-0.193021387,-0.060617346,-0.622706234,20.48567581,3.766560316,-11.10908508,-81.18817902,54.0385704,-33.94875717,-0.330566406,1.336425781,-0.471191406
525,1215148607,0.754458547,-0.195063919,-0.058124684,-0.623991609,20.73419571,3.059690475,-11.52597332,-47.90972137,10.84843445,-16.92111015,-0.340332031,1.350585938,-0.462402344
526,1215156940,0.754135132,-0.196518376,-0.059312616,-0.623814106,21.68820572,2.103121281,-10.28602123,-6.182126999,-25.33625793,-2.93877387,-0.332519531,1.337890625,-0.452148438
527,1215165273,0.754256904,-0.196609795,-0.062696978,-0.62330693,21.24492836,2.269791603,-8.273283958,28.25354004,-36.97669983,-2.746414661,-0.336914063,1.358886719,-0.466796875
528,1215173606,0.754454792,-0.196017668,-0.067231588,-0.622781336,18.10768127,2.85958147,-5.482193947,45.43634033,-42.92294693,-5.585587025,-0.325195313,1.354492188,-0.475097656
529,1215181939,0.754773259,-0.196528032,-0.073172607,-0.621563852,14.99064827,2.503795385,-2.896743536,46.99594116,-68.81921387,-0.163727194,-0.326171875,1.373535156,-0.50390625
530,1215190272,0.755310118,-0.198223904,-0.080989674,-0.619399726,14.03582382,0.146902964,-0.566895545,52.27885056,-100.5820694,7.686035633,-0.326171875,1.36328125,-0.518554688
531,1215198605,0.756196916,-0.199975714,-0.089754783,-0.616540074,14.56442356,-1.381551266,2.554663181,61.49224854,-112.5944214,15.33394527,-0.336425781,1.383789063,-0.555175781
532,1215206938,0.756864011,-0.201742858,-0.096495114,-0.614122748,10.5753479,-1.000855088,13.40031528,43.02322006,-90.49263,14.4992094,-0.326660156,1.380859375,-0.575683594
533,1215215271,0.755960584,-0.204240352,-0.103687286,-0.613237321,-8.082605362,-4.656238556,31.72144318,32.83952713,-99.42878723,-15.03252792,-0.344238281,1.404785156,-0.610351563
534,1215223604,0.750244915,-0.203457072,-0.111085571,-0.619192541,-23.0048008,-16.57694054,27.72126579,45.41695404,-61.29547882,-131.9508209,-0.356445313,1.405273438,-0.633789063
535,1215231937,0.751825392,-0.204787225,-0.117387757,-0.615664244,-2.530721426,-14.72880363,14.52997208,49.17742538,-83.62843323,34.28063202,-0.385253906,1.426269531,-0.660644531
536,1215240270,0.759177327,-0.203132063,-0.128248781,-0.604930401,10.54330444,-4.655795574,-1.887938142,146.5490875,-116.3066483,139.9940491,-0.361328125,1.407226563,-0.687011719
537,1215248603,0.760109484,-0.205077291,-0.14114809,-0.600212932,18.64608955,7.821686745,-7.238742828,97.35060883,-162.2106171,24.42269135,-0.374511719,1.408691406,-0.730957031
538,1215256936,0.761615038,-0.210362002,-0.151643142,-0.593882322,24.2044754,10.48135662,4.87041378,47.39329529,-167.9234924,59.26546478,-0.369140625,1.40625,-0.766113281
539,1215265269,0.76491648,-0.213474691,-0.160113797,-0.586256206,17.49710655,2.198464155,12.1168766,61.45875931,-129.1391602,88.84389496,-0.388183594,1.419433594,-0.808105469
540,1215273602,0.766687095,-0.212279558,-0.164654911,-0.583111107,3.900146723,-1.211623311,15.18609524,60.75302505,-43.06476974,31.42404366,-0.37890625,1.412109375,-0.834960938
541,1215281935,0.767175496,-0.208578616,-0.170153454,-0.582225084,-4.463127613,1.318946719,11.63714123,85.96966553,-29.59976959,-11.15187931,-0.392089844,1.427734375,-0.869628906
542,1215290268,0.765492916,-0.208125263,-0.177228734,-0.582491279,-4.340938568,9.907352448,9.174755096,55.42675018,-73.78017426,-37.60504532,-0.402832031,1.4140625,-0.8828125
543,1215298601,0.762805343,-0.212551981,-0.185553163,-0.581825852,3.595586538,13.19607544,10.57584763,13.43773842,-131.3673859,-27.5379982,-0.439453125,1.427734375,-0.900390625
544,1215306934,0.761604786,-0.217734098,-0.192273587,-0.579294562,13.57956886,3.391285658,9.850978851,1.784785032,-122.0510406,10.57084084,-0.45703125,1.421875,-0.903808594
545,1215315267,0.761546075,-0.218787581,-0.195403859,-0.57792592,11.80213928,-8.135781288,7.3094244,16.77275848,-45.2531929,7.300878048,-0.482910156,1.438476563,-0.9296875
546,1215323600,0.760921776,-0.21647644,-0.198406339,-0.578595042,4.394402504,-11.35143757,7.63173008,43.788311,-12.36742592,-27.13975334,-0.491210938,1.43359375,-0.944335938
547,1215331933,0.760855317,-0.213347465,-0.20335035,-0.57812798,3.566118717,-7.194613457,8.726454735,72.58211517,-28.23393631,-18.87521172,-0.515625,1.44921875,-0.973632813
548,1215340266,0.761093199,-0.209583789,-0.207749605,-0.577627301,8.244876862,-1.148182869,8.893332481,75.87656403,-16.53051758,-16.25349998,-0.524902344,1.434570313,-0.992675781
549,1215348599,0.76128757,-0.205205679,-0.209998086,-0.578129768,9.710551262,0.577716649,9.061807632,62.2336998,13.42338562,-22.6811142,-0.546875,1.444824219,-1.020996094
550,1215356932,0.761678398,-0.20150432,-0.210787773,-0.578629434,8.033713341,-0.922160387,8.232557297,44.11723328,24.07622337,-15.00990105,-0.547363281,1.44140625,-1.029785156
551,1215365265,0.762038827,-0.19840312,-0.211129785,-0.579101801,7.102964878,0.391127914,7.929524899,34.26033783,23.62454605,-11.99583149,-0.572753906,1.453125,-1.053710938
552,1215373598,0.762308955,-0.195962518,-0.211089849,-0.579591453,5.710031033,2.185426235,7.905226707,23.99860191,22.35798454,-9.925013542,-0.570800781,1.446777344,-1.055175781
553,1215381931,0.76258117,-0.194454357,-0.210741848,-0.579868019,4.64033699,1.671530962,7.807564259,12.39361954,17.38142967,-4.150685787,-0.590332031,1.459472656,-1.075683594
554,1215390264,0.762799263,-0.193652809,-0.210458025,-0.579952478,5.505340099,0.562762499,7.830091476,5.903325081,10.61119556,-0.672450483,-0.583496094,1.457519531,-1.072753906
555,1215398597,0.76297909,-0.193099946,-0.210158974,-0.580008864,7.119063377,-0.194434598,8.655151367,3.156583309,8.392978668,0.060462404,-0.604980469,1.468261719,-1.082519531
556,1215406930,0.763190627,-0.192058429,-0.209598795,-0.580278814,5.200390816,-0.350590199,9.136720657,5.657608986,15.89539051,-2.630454302,-0.607421875,1.463378906,-1.072265625
557,1215415263,0.763265252,-0.191471875,-0.209406897,-0.58044374,4.361721992,-0.057786278,8.312108994,3.772118807,7.522043228,-2.298365593,-0.629394531,1.475097656,-1.083007813
558,1215423596,0.763422608,-0.191319272,-0.209200636,-0.580361545,6.251789093,-0.507354558,8.508559227,0.023936501,3.999471188,2.266744614,-0.630371094,1.469726563,-1.075195313
559,1215431929,0.763579547,-0.190788612,-0.208830461,-0.580463052,4.516002178,-0.152383819,8.314229965,2.163980484,9.017864227,-0.344998181,-0.65234375,1.479003906,-1.085449219
560,1215440262,0.763683736,-0.190759152,-0.208796784,-0.580347478,5.079051018,-0.215062127,8.124773026,0.060283098,0.962134719,2.086650848,-0.653808594,1.479003906,-1.081542969
561,1215448595,0.763815224,-0.190667406,-0.208543673,-0.580295682,4.843824387,-0.565497696,8.125555038,-1.135607243,3.808926821,2.014982224,-0.676757813,1.489257813,-1.095214844
562,1215456928,0.763897121,-0.190864772,-0.208489195,-0.580142677,5.10182476,-1.333059788,7.714317322,-2.439934731,-0.794656038,3.006688356,-0.672363281,1.485839844,-1.087402344
563,1215465261,0.763939559,-0.190954834,-0.208535701,-0.580040336,6.466067314,-1.03442204,7.626776218,-0.743786097,-1.176922917,1.570242167,-0.6953125,1.496582031,-1.102539063
564,1215473594,0.764028072,-0.190645531,-0.208290547,-0.580113828,4.264895916,-0.901972413,8.164164543,0.732989788,5.860575676,-0.269461751,-0.6953125,1.4921875,-1.09375
565,1215481927,0.7640028,-0.190882713,-0.208341077,-0.580050945,4.441193581,-1.043331623,8.287410736,-2.5485394,-2.483786345,1.025324821,-0.716308594,1.502441406,-1.104980469
566,1215490260,0.763980925,-0.190948993,-0.208429888,-0.580025971,6.755059719,-0.485806704,8.328469276,-0.554292083,-1.218699694,0.086870678,-0.721191406,1.499511719,-1.097167969
567,1215498593,0.763943911,-0.190882444,-0.208363399,-0.580120385,5.95587635,-0.389674813,8.34636116,-0.772730231,1.547317505,-1.282402277,-0.740722656,1.502441406,-1.112304688
568,1215506926,0.763931334,-0.190797195,-0.208240256,-0.580209315,4.328917503,-0.752876639,8.597506523,-0.955538988,2.540253401,-0.919730425,-0.744628906,1.498046875,-1.104003906
569,1215515259,0.763817787,-0.191141278,-0.208473131,-0.580162048,4.464276791,-0.55626601,7.873187542,-2.492879868,-5.464080334,-0.013140102,-0.770019531,1.503417969,-1.113769531
570,1215523592,0.76369983,-0.191480219,-0.208714694,-0.580118775,6.148009777,-0.039382447,7.938122749,-2.40233326,-5.327453136,-0.114137024,-0.76953125,1.500488281,-1.112792969
571,1215531925,0.763636887,-0.191780061,-0.208684757,-0.580113471,3.356388092,-0.418481827,7.926681042,-4.112416744,-2.096602201,0.513783157,-0.795898438,1.504882813,-1.121582031
572,1215540258,0.763442695,-0.192768946,-0.20927459,-0.579828382,5.280441761,-0.650702953,7.204907417,-5.9523139,-15.02538967,2.765940905,-0.801269531,1.499023438,-1.119628906
573,1215548591,0.763324082,-0.193315729,-0.20947738,-0.579729319,6.927567005,0.125450522,7.905769348,-4.727081299,-6.916124821,1.150911689,-0.826171875,1.50390625,-1.132324219
574,1215556924,0.763245463,-0.19372499,-0.20952414,-0.579679251,3.880648375,-0.775515735,7.978158474,-4.566045284,-3.752024412,0.991360545,-0.830078125,1.499023438,-1.128417969
575,1215565257,0.763058543,-0.194489419,-0.210022017,-0.579489231,5.991005421,-1.080186486,7.748138905,-4.578392029,-12.18784523,1.403724432,-0.857910156,1.501953125,-1.138671875
576,1215573590,0.762887359,-0.194737747,-0.2101769,-0.579574943,5.883941174,-0.787744939,8.1692276,-2.658450603,-3.508842945,-1.922937512,-0.864257813,1.498046875,-1.136230469
577,1215581923,0.762650549,-0.195100605,-0.210415825,-0.579677761,4.445421696,-0.80984503,8.067219734,-3.406846762,-5.631827354,-2.536808014,-0.896484375,1.495605469,-1.141113281
578,1215590256,0.762362123,-0.195619181,-0.21088098,-0.579713464,5.580811977,-0.610695481,7.681642056,-3.18820405,-9.388463974,-2.385658979,-0.904785156,1.4921875,-1.141113281
579,1215598589,0.762078524,-0.196071789,-0.211208314,-0.579814196,5.345503807,-0.657647789,7.908517361,-3.76452446,-7.415295601,-2.864107132,-0.935058594,1.487304688,-1.146972656
580,1215606922,0.761748493,-0.196533099,-0.211610377,-0.579945385,5.111470699,-0.69063592,7.67654705,-3.474392414,-8.137413025,-3.709248781,-0.946289063,1.477539063,-1.145019531
581,1215615255,0.761401772,-0.196985304,-0.212110505,-0.580064595,5.125851631,-0.380628735,7.53002739,-2.606504917,-9.356086731,-4.028043747,-0.979492188,1.476074219,-1.150390625
582,1215623588,0.761043549,-0.197428718,-0.212604538,-0.580202758,4.57922554,-0.803159535,7.706499577,-2.653609514,-9.022794724,-4.313770771,-0.994628906,1.467285156,-1.141113281
583,1215631921,0.760596573,-0.198020071,-0.21310769,-0.580402792,5.265323639,-0.720896423,8.049412727,-4.546732426,-10.57104778,-5.277199268,-1.028320313,1.458496094,-1.145507813
584,1215640254,0.760175407,-0.198334366,-0.213557005,-0.580682099,4.737260342,-0.929277658,7.756886482,-2.246599197,-7.328053474,-6.552479744,-1.043457031,1.445800781,-1.140136719
585,1215648587,0.759694993,-0.198813021,-0.21413523,-0.580934167,5.691548347,-0.863661945,7.955844879,-3.01059556,-10.41241932,-6.622587204,-1.077636719,1.444335938,-1.140625
586,1215656920,0.759221435,-0.19899334,-0.214481369,-0.581363559,5.567250729,-0.753304839,8.017548561,-2.255128384,-4.92464447,-8.646265984,-1.089355469,1.431640625,-1.126953125
587,1215665253,0.758736491,-0.199124172,-0.214968726,-0.581771851,5.019732475,-0.915938616,7.714020729,-0.574885905,-6.270415783,-9.068464279,-1.125488281,1.420898438,-1.125
588,1215673586,0.758218586,-0.19925414,-0.215607092,-0.582166255,5.150718212,-0.611974537,7.777693272,0.591317415,-7.800097466,-9.58425808,-1.134765625,1.405273438,-1.114746094
589,1215681919,0.757688701,-0.199476361,-0.216336146,-0.582509518,4.741831303,-0.476315498,7.846196651,0.476258367,-9.833971977,-9.138648987,-1.1640625,1.395996094,-1.110839844
590,1215690252,0.757120609,-0.199894905,-0.217273742,-0.582755685,5.276573181,-0.18520081,7.858638287,0.279156774,-13.78647995,-8.411536217,-1.175292969,1.380859375,-1.093261719
591,1215698585,0.756600618,-0.20041585,-0.218214199,-0.582900703,4.738482475,-0.489439666,7.960184574,-0.323507875,-14.94416714,-6.685624123,-1.200195313,1.370117188,-1.084960938
592,1215706918,0.755925357,-0.201428249,-0.21937497,-0.582991958,5.618546486,-0.854236662,8.08396244,-3.939470768,-21.62024117,-6.485244751,-1.205078125,1.353027344,-1.0703125
593,1215715251,0.754590929,-0.203058317,-0.22029084,-0.583809316,5.237719536,-0.548933029,8.398978233,-16.337183,-24.17258453,-16.79478073,-1.228027344,1.341796875,-1.061523438
594,1215723584,0.752940476,-0.205034897,-0.221327648,-0.584856212,6.201451778,-5.148151875,8.055178642,-20.54592323,-28.35888863,-20.98817825,-1.238769531,1.327636719,-1.037597656
595,1215731917,0.751008868,-0.205408216,-0.222911343,-0.586604655,3.743213415,0.729025602,8.640282631,-2.470343351,-20.17175484,-36.94797516,-1.264160156,1.317871094,-1.034179688
596,1215740250,0.749332786,-0.208140224,-0.224544048,-0.587162197,6.077358246,0.134439126,7.780616283,-22.06069374,-42.11911774,-15.48939705,-1.267089844,1.299804688,-1.012695313
597,1215748583,0.747401893,-0.20970577,-0.226095974,-0.588469148,6.037843704,-2.933069944,8.14470768,-13.7374258,-30.67865944,-28.6450901,-1.291503906,1.288085938,-1.005859375
598,1215756916,0.74529171,-0.21121648,-0.22808519,-0.589835942,4.052767277,1.167145014,8.182834625,-10.34228134,-34.94854355,-32.13555527,-1.296386719,1.269042969,-0.990234375
599,1215765249,0.743528783,-0.213740036,-0.230455711,-0.590230227,6.229076862,0.300756454,7.581501007,-13.56679344,-48.97144699,-17.29001045,-1.318359375,1.2578125,-0.986328125
600,1215773582,0.741863489,-0.21559222,-0.232842624,-0.59071517,6.456718445,0.34965843,8.212509155,-6.573316574,-42.9552803,-19.5953083,-1.321777344,1.237792969,-0.966308594
601,1215781915,0.740403414,-0.217572555,-0.235322535,-0.590838253,3.734954834,0.712930799,8.058956146,-5.354717731,-45.5184288,-14.10591507,-1.341308594,1.228515625,-0.959960938
602,1215790248,0.738898516,-0.220600575,-0.238522217,-0.590316057,6.025457859,0.22456181,7.734816551,-8.224094391,-63.2766571,-6.652270317,-1.345703125,1.211425781,-0.947265625
603,1215798581,0.737603009,-0.222992375,-0.241643623,-0.589767873,6.680713654,0.182584167,8.127719879,-1.670514107,-56.86817169,-6.550296783,-1.369140625,1.196289063,-0.942382813
604,1215806914,0.736350894,-0.225607872,-0.244955555,-0.5889709,4.799918175,0.078274392,8.102409363,-1.439601421,-61.07851791,-3.500042915,-1.369140625,1.179199219,-0.926269531
605,1215815247,0.735058188,-0.228655964,-0.248699605,-0.587840021,6.061280727,-0.219107181,7.935620785,-1.316013813,-70.28673553,-0.346792638,-1.395996094,1.1640625,-0.922363281
606,1215823580,0.733860314,-0.231485024,-0.252570987,-0.586577594,5.957343578,-0.287259609,7.874862194,2.666850328,-69.73981476,0.616729438,-1.394042969,1.148925781,-0.902832031
607,1215831913,0.732589543,-0.234583452,-0.256811678,-0.585091949,5.705094814,-0.33945784,7.617221355,3.479084015,-76.75537109,2.025340796,-1.416503906,1.137695313,-0.895507813
608,1215840246,0.731216371,-0.237831488,-0.261435628,-0.583448291,6.374446392,-0.368679225,7.905669689,5.27511692,-82.54095459,2.100725651,-1.420410156,1.118652344,-0.875976563
609,1215848579,0.72989291,-0.240774006,-0.266244739,-0.581721187,4.966752529,-0.470758915,7.694401741,10.30447769,-82.19747162,1.619200826,-1.446289063,1.104980469,-0.87109375
610,1215856912,0.728373587,-0.244329646,-0.271587342,-0.579669535,4.925729752,-0.715516627,7.766455173,8.950056076,-94.10097504,3.804755688,-1.452636719,1.0859375,-0.849121094
611,1215865245,0.72676003,-0.247969136,-0.277353257,-0.577414989,6.518951416,-0.659856141,7.224226475,11.93307495,-100.1895294,3.95990634,-1.473144531,1.072265625,-0.839355469
612,1215873578,0.725001454,-0.251657009,-0.283401012,-0.575088501,7.611834526,-0.203136176,7.517692089,13.45973015,-104.0488281,2.767503977,-1.477050781,1.0546875,-0.817871094
613,1215881911,0.723408997,-0.2548922,-0.289354205,-0.572699666,5.782592773,-0.66267097,7.342461586,18.05093765,-99.23564911,3.248669863,-1.497070313,1.038085938,-0.803222656
614,1215890244,0.721314192,-0.25903818,-0.295963049,-0.570098579,5.792915344,-0.759575248,7.264146805,13.23102474,-115.533905,2.744892836,-1.500976563,1.021972656,-0.784179688
615,1215898577,0.719136357,-0.263036966,-0.302778751,-0.567433596,7.447457314,-0.712105274,7.323104858,16.28382492,-117.1366653,1.37843442,-1.520019531,1.009277344,-0.767578125
616,1215906910,0.716727138,-0.267189503,-0.309805781,-0.564742446,6.129262447,-0.598350286,6.359640598,15.67677116,-121.3523941,-0.282861739,-1.51953125,0.988769531,-0.744628906
617,1215915243,0.713797033,-0.272151709,-0.317566782,-0.561765373,7.990937233,-0.423576862,6.735265255,12.7077322,-138.27565,-0.76890111,-1.541015625,0.9765625,-0.73046875
618,1215923576,0.710953653,-0.276638716,-0.325237244,-0.558782637,7.518204212,-0.526841819,6.731685638,17.01943207,-133.2292938,-1.766513586,-1.540527344,0.956542969,-0.702148438
619,1215931909,0.707736373,-0.281532496,-0.333490521,-0.555548429,5.387661934,-0.359194309,6.313077927,17.22690773,-144.8117676,-2.590262413,-1.551757813,0.944335938,-0.684082031
620,1215940242,0.704141319,-0.287151754,-0.342634022,-0.551663578,6.027842045,-0.10536176,7.073216438,18.48486137,-163.1438446,0.743125021,-1.551269531,0.926269531,-0.657714844
621,1215948575,0.70052135,-0.292889893,-0.352010638,-0.547335029,5.981865883,-0.090086877,8.260305405,21.09747887,-168.3013763,4.483180523,-1.56640625,0.912597656,-0.635742188
622,1215956908,0.696380079,-0.299106807,-0.362081528,-0.542667806,6.892215252,0.472614139,7.300720692,21.25282669,-182.3587341,3.35552597,-1.56640625,0.897949219,-0.604980469
623,1215965241,0.691847205,-0.305883855,-0.372855276,-0.537366688,9.499032974,0.240313798,6.907678127,22.67841911,-197.9511719,6.389169216,-1.586914063,0.886230469,-0.587890625
624,1215973574,0.687268734,-0.312632918,-0.383757263,-0.531652451,7.226375103,-0.658646166,7.510943413,25.81730652,-200.8259277,9.311816216,-1.582519531,0.875,-0.557128906
625,1215981907,0.681711376,-0.320173115,-0.39571023,-0.525522411,5.117701054,-0.88346678,7.425403595,24.01155663,-223.6077271,5.729019165,-1.599121094,0.861328125,-0.540527344
626,1215990240,0.674825907,-0.328922093,-0.409049898,-0.518748403,8.346252441,-0.55011344,6.341732979,20.35152054,-255.3102112,2.648063183,-1.59765625,0.8515625,-0.504882813
627,1215998573,0.667258024,-0.338321954,-0.422871888,-0.51135689,8.788486481,-0.78676784,7.224598408,18.1450367,-271.1643982,4.984022141,-1.612304688,0.839355469,-0.477539063
628,1216006906,0.658408523,-0.348472178,-0.437542737,-0.503610373,5.607677937,-1.829804301,7.561718464,13.33302975,-293.2500305,-0.350070715,-1.607421875,0.829101563,-0.439453125
629,1216015239,0.647229493,-0.360073566,-0.453938901,-0.495360702,5.523813248,-2.600134373,6.538334846,4.004248619,-335.4489136,-11.47349834,-1.622558594,0.822753906,-0.404296875
630,1216023572,0.633957326,-0.373106152,-0.471841425,-0.486062944,8.601776123,-2.665929317,7.019950867,-2.293094397,-376.802063,-14.92646503,-1.619140625,0.810546875,-0.354003906
631,1216031905,0.61900574,-0.386503667,-0.490293086,-0.476509273,7.96558094,-2.696294308,7.459243774,-8.764076233,-396.3196106,-24.37409973,-1.635253906,0.8046875,-0.310546875
632,1216040238,0.601835072,-0.400562912,-0.509438217,-0.466709882,7.851732731,-1.127018929,6.802177906,-19.99301338,-422.783783,-36.05971527,-1.630371094,0.791992188,-0.258789063
633,1216048571,0.582779825,-0.415791482,-0.528214216,-0.456592143,12.08404255,1.874711037,4.416641235,-40.19306946,-442.2538147,-35.28527069,-1.640625,0.784179688,-0.20703125
634,1216056904,0.562119961,-0.431465536,-0.545993328,-0.446935743,18.05415916,2.610356569,3.291051149,-62.56077194,-446.0518494,-40.14194107,-1.631835938,0.7734375,-0.1484375
635,1216065237,0.541055441,-0.445738733,-0.562654674,-0.438174993,24.58192825,0.481570184,4.047395706,-67.71955872,-426.5474243,-53.42076874,-1.63671875,0.764648438,-0.092285156
636,1216073570,0.523461163,-0.456346989,-0.577101946,-0.429756552,28.91060066,-4.197113991,8.48762989,-35.15449905,-358.9930115,-49.84730911,-1.623535156,0.755859375,-0.045410156
637,1216081903,0.508668303,-0.460312843,-0.591673017,-0.423430115,21.008564,-9.507459641,8.023908615,14.3672533,-285.2686768,-101.8362198,-1.62890625,0.745605469,-0.013671875
638,1216090236,0.495654047,-0.460692495,-0.607030571,-0.416659266,13.66250324,-5.603898525,9.309501648,58.90602493,-258.238739,-122.5463409,-1.624511719,0.73046875,0.010742188
639,1216098569,0.483133972,-0.461748093,-0.621462882,-0.408846945,9.488562584,-0.283739746,9.650893211,60.82540894,-258.2654114,-101.0942459,-1.636230469,0.720214844,0.030761719
640,1216106902,0.470194489,-0.463918149,-0.634938061,-0.400689721,10.30677891,-0.370351493,9.509235382,48.30441284,-264.0068359,-85.60364532,-1.627929688,0.712402344,0.050292969
641,1216115235,0.457979441,-0.465928346,-0.646893501,-0.393314034,11.84254074,-2.77756381,10.00142288,38.7796402,-241.9237518,-78.31806946,-1.637207031,0.708984375,0.071289063
642,1216123568,0.447829008,-0.467730969,-0.656010389,-0.38772276,12.8852911,-2.353194714,12.31148148,22.07492638,-193.2280731,-62.09585953,-1.630371094,0.709472656,0.092773438
643,1216131901,0.439880848,-0.470583051,-0.660545051,-0.385666013,12.35930729,1.04235208,13.39067078,-26.5290451,-127.8893127,-33.12998962,-1.642578125,0.708984375,0.106933594
644,1216140234,0.430944592,-0.475499183,-0.662454307,-0.386449367,10.02272892,3.5663836,11.43556213,-85.14674377,-113.7227402,-19.87520599,-1.640136719,0.716308594,0.121582031
645,1216148567,0.421514511,-0.479487091,-0.664751947,-0.387974143,9.976553917,0.087189391,8.841920853,-87.54947662,-110.5709076,-37.82555008,-1.65625,0.715820313,0.141601563
646,1216156900,0.41511488,-0.481455237,-0.666647613,-0.389182329,13.68964291,-4.955728531,10.48376083,-55.1143074,-72.08711243,-35.69943237,-1.657226563,0.721679688,0.150878906
647,1216165233,0.413936496,-0.481140673,-0.665768147,-0.392319471,16.8791008,-5.741154194,10.9321394,-40.04641342,16.84843826,-21.25585175,-1.677734375,0.725585938,0.158203125
648,1216173566,0.417350501,-0.478565961,-0.662292242,-0.397697866,15.10277939,-3.992889404,9.029500961,-31.32547188,100.3972855,-12.83493423,-1.687988281,0.7421875,0.150878906
649,1216181899,0.424184382,-0.474614948,-0.657503247,-0.403111964,9.286549568,-4.285773277,5.676535606,-8.424554825,147.1429291,1.855748296,-1.715332031,0.754394531,0.130859375
650,1216190232,0.432486027,-0.470656306,-0.651998699,-0.40784505,3.781078339,-4.169968605,4.582797527,3.389058113,159.8184357,18.44898415,-1.731445313,0.774414063,0.103027344
651,1216198565,0.440447986,-0.468329012,-0.645495296,-0.412323624,2.023319721,-1.3040483,4.43107748,-11.82970715,152.2832336,39.26539612,-1.757324219,0.796875,0.072753906
652,1216206898,0.448003173,-0.467670053,-0.637801468,-0.416879654,3.394775152,0.702067792,4.017980099,-31.99616432,146.5267487,58.8271904,-1.767089844,0.818847656,0.046875
653,1216215231,0.455669075,-0.467870593,-0.629048944,-0.421617895,5.155056477,-0.467358321,3.825469017,-44.24389267,150.6612396,72.82632446,-1.787597656,0.84765625,0.023925781
654,1216223564,0.464174628,-0.467289031,-0.62005192,-0.426286519,6.293760777,-2.603212357,3.570770741,-34.76470184,163.1294098,72.79425812,-1.792480469,0.878417969,-0.004882813
655,1216231897,0.474618018,-0.464127362,-0.611299932,-0.430857062,6.760670185,-4.074597359,3.822626352,-3.560635567,193.0000763,61.34963226,-1.817382813,0.911132813,-0.037109375
656,1216240230,0.486701518,-0.458173722,-0.602151573,-0.436592877,5.706224442,-2.061548471,4.692777157,12.97721004,232.920105,42.36612701,-1.81640625,0.938964844,-0.077636719
657,1216248563,0.498974115,-0.450927943,-0.591903031,-0.444230884,4.00549984,2.404670477,4.823581696,0.46939674,262.035553,27.157938,-1.836914063,0.967773438,-0.130859375
658,1216256896,0.510246098,-0.444027543,-0.580205023,-0.453709453,2.602025747,4.961427689,4.848196983,-31.94403267,272.6803284,20.04210854,-1.835449219,0.995117188,-0.180175781
659,1216265229,0.519948542,-0.438010603,-0.567351282,-0.46466583,2.612909317,4.007077694,4.241005421,-66.72958374,272.2418213,14.1583147,-1.8515625,1.020996094,-0.228515625
660,1216273562,0.528800547,-0.432077169,-0.553734422,-0.476506948,3.751343727,1.194087625,3.182937145,-84.21047211,275.3798828,7.483324528,-1.846679688,1.045898438,-0.27734375
661,1216281895,0.537417293,-0.425397217,-0.539788246,-0.488722771,3.900660038,-0.654881418,2.286580086,-85.2120285,283.5797119,-0.351198286,-1.8671875,1.075683594,-0.325195313
662,1216290228,0.545622289,-0.418109447,-0.525830686,-0.500983298,3.164170265,-0.657170355,2.170984268,-83.50161743,284.4637146,-8.052919388,-1.852050781,1.103515625,-0.37109375
663,1216298561,0.553158522,-0.411150575,-0.512180269,-0.51248771,3.275275707,-0.376190484,2.778009176,-82.26503754,271.1977539,-6.213376522,-1.861328125,1.137695313,-0.42578125
664,1216306894,0.560430825,-0.40486294,-0.498504519,-0.5229702,5.056564808,-0.795885682,3.229014874,-81.79693604,258.5256958,4.39421463,-1.840332031,1.169921875,-0.47265625
665,1216315227,0.568221152,-0.398656368,-0.484459698,-0.532445073,6.989792824,-1.798187613,3.323373795,-75.33019257,259.2260132,18.6733017,-1.842285156,1.206054688,-0.524902344
666,1216323560,0.576859951,-0.391908705,-0.469728798,-0.541291595,7.80716753,-2.613580227,3.72723341,-67.22623444,270.2550659,29.76924324,-1.803710938,1.241699219,-0.575195313
667,1216331893,0.586081207,-0.384757757,-0.454357654,-0.549573541,7.907818794,-2.434864044,4.025840759,-62.06842422,279.5576477,39.61339569,-1.785644531,1.285644531,-0.626464844
668,1216340226,0.595800936,-0.377515793,-0.438509166,-0.556968868,8.159773827,-2.165832281,3.950936079,-56.69512177,282.0128479,52.28211212,-1.727050781,1.326171875,-0.672363281
669,1216348559,0.605953097,-0.370037407,-0.422636718,-0.563269913,8.573577881,-2.740246534,4.130645752,-46.16759109,281.4516602,63.46312714,-1.695800781,1.368164063,-0.726074219
670,1216356892,0.616424322,-0.362092167,-0.40668565,-0.568787158,8.879701614,-3.142111778,4.700592518,-36.62704468,283.0792542,69.93621826,-1.622070313,1.406738281,-0.772460938
671,1216365225,0.627105772,-0.3537274,-0.390687644,-0.573567927,9.276788712,-2.567408562,5.518938541,-28.35143852,284.77771,75.926651,-1.571777344,1.444335938,-0.81640625
672,1216373558,0.637943625,-0.345134139,-0.37445128,-0.577666104,9.573590279,-1.737051368,6.203800201,-23.74356651,285.6415405,82.75036621,-1.482910156,1.471679688,-0.8515625
673,1216381891,0.648631811,-0.33651489,-0.358087361,-0.581213832,9.653689384,-1.527068496,7.145195007,-22.49405479,284.0980225,87.0925827,-1.416015625,1.502441406,-0.88671875
674,1216390224,0.659157097,-0.327818364,-0.341668516,-0.584218442,10.28312206,-1.619692445,7.934518337,-20.22502899,281.3721008,90.27173615,-1.323242188,1.520996094,-0.906738281
675,1216398557,0.66944623,-0.318934321,-0.325008661,-0.586935818,11.20506191,-1.149468064,8.710132599,-20.27374077,283.1768188,91.41996765,-1.253417969,1.542480469,-0.940429688
676,1216406890,0.679398715,-0.309884608,-0.307959974,-0.589534581,11.88658333,-0.519246578,9.464500427,-22.72348022,285.5434265,90.5255661,-1.153808594,1.549804688,-0.947753906
677,1216415223,0.688926041,-0.300799847,-0.290666789,-0.591958404,12.63218594,-0.602699041,10.132061,-25.55948257,286.0927429,89.8415451,-1.078125,1.5625,-0.965332031
678,1216423556,0.698128581,-0.291476697,-0.273068964,-0.594216049,13.55122375,-0.634318411,10.42700958,-26.34808731,288.4042358,88.84764862,-0.979492188,1.557617188,-0.957519531
679,1216431889,0.706931472,-0.281717837,-0.255307078,-0.596408188,14.04681873,-0.046750881,10.23596478,-24.97439957,292.3062744,85.46308136,-0.909667969,1.562988281,-0.96484375
