PacketCounter,SampleTimeFine,Quat_W,Quat_X,Quat_Y,Quat_Z,Acc_X,Acc_Y,Acc_Z,Gyr_X,Gyr_Y,Gyr_Z,Mag_X,Mag_Y,Mag_Z
0,1210782115,0.113086097,0.546615958,-0.060114589,0.827531934,0,0,0,0,0,0,-1.336425781,-0.628417969,-0.241699219
1,1210790448,0.109905519,0.562887847,-0.056459308,0.817245901,13.71164703,1.418562531,3.02377224,83.52278137,-259.6264954,-21.62450409,-1.3359375,-0.66796875,-0.168457031
2,1210798781,0.106850319,0.579008043,-0.052908354,0.806556761,14.2324295,2.209442854,3.405771971,80.90224457,-261.636261,-22.67302513,-1.350097656,-0.709472656,-0.086914063
3,1210807114,0.104221709,0.594943345,-0.049695399,0.795431376,14.87826443,2.446848631,3.803740501,73.09585571,-262.7127075,-25.26237679,-1.331542969,-0.744140625,-0.00390625
4,1210815447,0.102089658,0.610528827,-0.046897717,0.783985615,15.49313927,1.932438135,4.244639397,63.83977127,-262.2960815,-27.47338295,-1.330566406,-0.77734375,0.083496094
5,1210823780,0.100199014,0.625707865,-0.044517122,0.772313595,16.24236679,1.683171511,4.864110947,56.50359726,-259.7200012,-26.66891479,-1.290527344,-0.8046875,0.165527344
6,1210832113,0.09873908,0.640266061,-0.042776801,0.76057899,16.60723495,1.239597559,5.450729847,45.20066071,-254.8035736,-25.40143394,-1.26953125,-0.830566406,0.248535156
7,1210840446,0.097806774,0.654235184,-0.041514032,0.748790562,17.13025475,0.241555989,5.947503567,34.63699341,-248.9573975,-26.4712677,-1.214355469,-0.850097656,0.31640625
8,1210848779,0.097200677,0.667495966,-0.040638417,0.737123013,17.9947834,-0.460223228,6.392359257,26.92137718,-241.4045715,-25.75024414,-1.1875,-0.86328125,0.38671875
9,1210857112,0.096675985,0.679911077,-0.04021237,0.725780964,18.35508919,-1.130009651,6.892658234,20.58753014,-229.9394989,-21.57022667,-1.127929688,-0.868652344,0.439941406
10,1210865445,0.096141301,0.691517889,-0.040159915,0.714805841,18.16753006,-1.419104457,7.520303726,16.16182518,-219.4032593,-17.01219177,-1.09765625,-0.877929688,0.495605469
11,1210873778,0.095601313,0.702463329,-0.040392514,0.70411247,18.06260109,-1.260408759,8.216314316,12.61308479,-210.187851,-13.54907799,-1.043457031,-0.875976563,0.540527344
12,1210882111,0.095102392,0.712677538,-0.040902194,0.69381094,18.11124229,-0.221090376,8.989143372,8.867948532,-200.0755768,-10.31206608,-1.016113281,-0.875488281,0.589355469
13,1210890444,0.095014989,0.722022057,-0.041854903,0.684035778,17.4340477,1.285072684,10.45843124,-0.309275746,-186.6151581,-8.766356468,-0.965820313,-0.864257813,0.616210938
14,1210898777,0.0958606,0.730545878,-0.043243043,0.674717784,16.29879951,1.888918281,11.94101334,-14.4040184,-174.7378998,-12.1021843,-0.940917969,-0.865722656,0.653808594
15,1210907110,0.097757421,0.738232195,-0.045060128,0.665902913,15.58836746,2.1472435,13.27316952,-29.79109383,-161.5793457,-16.44158363,-0.891113281,-0.854003906,0.668945313
16,1210915443,0.10059616,0.744888783,-0.047212634,0.657869756,15.30227757,1.493095756,14.39467335,-43.28230286,-144.3538361,-19.91593361,-0.874023438,-0.856445313,0.692382813
17,1210923776,0.104053795,0.750396371,-0.049399592,0.650875032,14.667696,0.874403,15.48805141,-50.88008499,-122.793129,-23.01962662,-0.828613281,-0.851074219,0.697753906
18,1210932109,0.108324409,0.754795253,-0.051510502,0.644900918,13.85288811,0.078349277,16.59263229,-59.45106125,-101.8498764,-28.8278923,-0.8203125,-0.854003906,0.712890625
19,1210940442,0.113173082,0.758081496,-0.053371541,0.640043914,13.80875587,-1.583218455,17.2536068,-64.10782623,-79.55073547,-34.14676285,-0.770996094,-0.849121094,0.702148438
20,1210948775,0.118097454,0.760056853,-0.054983124,0.636666179,13.4718008,-3.474509716,17.75832558,-63.64910507,-52.20153427,-34.09749603,-0.76953125,-0.864257813,0.708007813
21,1210957108,0.122320406,0.760848045,-0.056354649,0.634801149,12.41899586,-5.057255268,18.02223206,-54.96943665,-26.23327827,-27.18134499,-0.735351563,-0.855957031,0.69140625
22,1210965441,0.125391364,0.760677874,-0.057558995,0.634297669,11.30874062,-5.5206213,17.74347878,-42.04414368,-4.137064457,-15.77112007,-0.746582031,-0.8671875,0.693847656
23,1210973774,0.127223358,0.759744585,-0.058537032,0.634961426,10.71680069,-5.013286591,16.78832817,-27.45208168,13.94628429,-4.825751305,-0.731445313,-0.86328125,0.676269531
24,1210982107,0.128018931,0.758102715,-0.059230641,0.636697292,12.14702034,-4.117284775,15.53074837,-14.56698513,31.19042206,3.809365511,-0.751953125,-0.876953125,0.685546875
25,1210990440,0.127320662,0.754548311,-0.059301585,0.641038299,13.72866917,-5.090136528,13.71760368,5.303954601,74.66305542,16.38421631,-0.748535156,-0.873046875,0.665527344
26,1210998773,0.124640666,0.749713302,-0.058108721,0.647316456,9.784653664,-5.078971386,12.94402885,36.25344467,106.9611359,25.33355904,-0.785644531,-0.880859375,0.672851563
27,1211007106,0.121382065,0.744796395,-0.055891313,0.6537745,6.941330433,-3.549191475,12.61269093,51.46094894,110.4296494,20.11229515,-0.787109375,-0.87109375,0.65625
28,1211015439,0.117172047,0.739074588,-0.054178402,0.661138833,11.65185738,-5.794308186,11.07432938,55.90505219,125.7836609,36.14713669,-0.826660156,-0.877929688,0.66015625
29,1211023772,0.110032082,0.732088327,-0.050481174,0.670366824,16.87159729,-2.770731449,4.584691048,103.2161789,156.7505493,46.37075424,-0.838378906,-0.870117188,0.647460938
30,1211032105,0.103668138,0.725705802,-0.046780661,0.678539693,24.90277672,12.35076523,-7.497728825,95.47512817,141.5935516,37.36040878,-0.887695313,-0.869628906,0.657714844
31,1211040438,0.099859573,0.717460573,-0.048654798,0.687685549,15.63026619,0.758506179,-12.10722542,16.08986282,161.8467255,71.52150726,-0.897460938,-0.860839844,0.631835938
32,1211048771,0.094558656,0.710133433,-0.047041934,0.69610101,12.56325531,-2.105973005,-7.009514809,64.39830017,150.282196,49.82714081,-0.946289063,-0.861328125,0.628417969
33,1211057104,0.089332774,0.702196419,-0.046007384,0.70485723,10.10280323,-1.821792841,-0.376970828,57.69783783,158.2783813,55.43107605,-0.961425781,-0.846191406,0.608398438
34,1211065437,0.084682174,0.695036292,-0.043744419,0.712629259,8.495577812,-3.494689465,7.990925312,64.2406311,143.5835724,36.45531082,-1.007324219,-0.851074219,0.606445313
35,1211073770,0.081045583,0.688997507,-0.041341186,0.719030797,7.091515541,-1.708721161,9.51098156,56.54049301,119.8376617,22.74901772,-1.018066406,-0.840332031,0.587402344
36,1211082103,0.078303047,0.684564412,-0.038822718,0.723694146,9.049074173,-1.223060012,3.080025911,49.87405014,88.55766296,10.12372303,-1.062011719,-0.845214844,0.586914063
37,1211090436,0.075976826,0.680508614,-0.036205575,0.727890849,9.77812767,-0.394695729,-1.217672825,47.23602295,80.26265717,4.185000896,-1.064941406,-0.845703125,0.573242188
38,1211098769,0.073675007,0.676111042,-0.0336258,0.732335687,8.579427719,-0.151263073,0.373708099,46.25834274,86.45355988,4.882805824,-1.100097656,-0.849121094,0.569824219
39,1211107102,0.071564414,0.672043443,-0.031323712,0.736379921,9.556093216,0.830247223,2.36985445,41.97871017,78.75075531,4.824231625,-1.095214844,-0.843261719,0.551757813
40,1211115435,0.070087954,0.668176711,-0.030051813,0.740084469,8.024561882,-0.275383055,3.560925245,25.59245872,73.30024719,7.658735752,-1.125,-0.852539063,0.541992188
41,1211123768,0.069003247,0.665269613,-0.028795006,0.742850006,8.303211212,0.501222312,2.489747286,22.51494789,54.59854507,2.365776777,-1.122558594,-0.849609375,0.524902344
42,1211132101,0.067963906,0.662920535,-0.027838338,0.745079041,9.237861633,0.678396225,1.091324806,19.21177864,44.1759491,4.06046629,-1.154785156,-0.858398438,0.513671875
43,1211140434,0.066718057,0.660694659,-0.026958665,0.747197866,8.952273369,0.547356486,1.521398306,20.52058792,41.30821609,6.590029716,-1.154296875,-0.85546875,0.501464844
44,1211148767,0.065418869,0.658699512,-0.026066765,0.749103427,8.949304581,1.302143455,2.017760992,21.12062454,37.44024658,6.884977341,-1.188964844,-0.858886719,0.495117188
45,1211157100,0.064332828,0.656877995,-0.025424885,0.750817299,9.659121513,1.766198993,2.203513145,16.84689903,33.32904053,6.592125416,-1.190917969,-0.860351563,0.484375
46,1211165433,0.063511111,0.655201077,-0.025400557,0.752351761,9.680609703,1.959592462,2.142998934,8.002317429,30.20173836,9.359309196,-1.224121094,-0.861816406,0.470214844
47,1211173766,0.06285347,0.65356791,-0.02566216,0.753817141,9.45867157,0.864284992,2.30522418,3.712337732,28.50109291,10.04395008,-1.221679688,-0.857910156,0.45703125
48,1211182099,0.0624821,0.652253091,-0.025853641,0.754979491,8.526054382,-0.292212337,2.427190542,1.902152181,23.07091522,6.191104412,-1.257324219,-0.863769531,0.440429688
49,1211190432,0.062486503,0.651237428,-0.025907766,0.755853415,8.866187096,-0.540378213,1.672448635,0.248266041,17.20881271,0.600820482,-1.258300781,-0.856933594,0.427734375
50,1211198765,0.062757552,0.650164962,-0.025891557,0.75675422,8.690828323,-0.364971071,1.912157416,-1.58339572,18.61634064,-2.655249119,-1.291992188,-0.858398438,0.415039063
51,1211207098,0.06331408,0.649176955,-0.025845718,0.757557273,8.895003319,-0.493667513,2.471598625,-3.662990808,16.57680702,-6.113838196,-1.289550781,-0.857421875,0.397949219
52,1211215431,0.064137064,0.648213804,-0.025868442,0.75831157,9.754637718,-0.067710802,2.785967588,-6.87855196,16.33163071,-8.220022202,-1.322753906,-0.858398438,0.377929688
53,1211223764,0.065336786,0.64734751,-0.026066015,0.758942246,10.05838299,-0.687988818,1.958393931,-11.88708401,13.79469204,-10.83915329,-1.318359375,-0.856445313,0.357910156
54,1211232097,0.066702537,0.646460056,-0.026000803,0.759581745,10.91883278,-0.598533452,1.80804801,-10.76999569,14.79554272,-14.79058552,-1.348632813,-0.860839844,0.3359375
55,1211240430,0.068214484,0.645391583,-0.026011446,0.760355353,10.02330589,-0.55579865,2.33570528,-12.86484718,17.46756172,-15.56371975,-1.347167969,-0.856933594,0.311035156
56,1211248763,0.06991075,0.644559801,-0.025863439,0.760911644,10.49341679,-0.02580875,1.754137635,-12.81185055,13.67045498,-19.08006859,-1.375,-0.859375,0.282714844
57,1211257096,0.071567886,0.643444359,-0.025918067,0.761699498,9.765029907,0.529483259,2.444997072,-14.63957024,18.10360527,-16.66404343,-1.368652344,-0.850585938,0.254394531
58,1211265429,0.073367774,0.642581522,-0.025971839,0.762254536,9.556851387,0.290460676,1.812792063,-15.86544323,13.829175,-18.37264633,-1.396972656,-0.852539063,0.219238281
59,1211273762,0.075177096,0.641556799,-0.026138339,0.76293546,9.771355629,0.369947165,1.937928081,-17.12054062,16.16019821,-17.3999691,-1.389160156,-0.843261719,0.188964844
60,1211282095,0.07685075,0.640667558,-0.026217982,0.763513029,9.59927845,0.070309155,1.550952673,-15.03602314,14.23669147,-16.7889595,-1.404296875,-0.843261719,0.153808594
61,1211290428,0.078235671,0.63967514,-0.0263534,0.764199436,9.839190483,0.783890605,2.041955709,-13.0253067,15.76491737,-13.22415161,-1.392578125,-0.831054688,0.114257813
62,1211298761,0.079372972,0.638670266,-0.026678249,0.764911175,9.524504662,0.563643336,2.560474396,-12.96600819,16.17338371,-8.813169479,-1.408691406,-0.823242188,0.082519531
63,1211307094,0.080333695,0.63790226,-0.027067093,0.765437663,10.09160328,0.693840086,1.431069374,-11.77041054,11.58420658,-6.788184643,-1.392089844,-0.813476563,0.046386719
64,1211315427,0.080995478,0.636923492,-0.027560396,0.766165078,10.45763874,1.050091863,2.597802401,-10.53295994,15.67731094,-2.320317268,-1.400878906,-0.80078125,0.014648438
65,1211323760,0.081650935,0.636006474,-0.028233115,0.766832471,9.302846909,-0.023992017,2.582458019,-12.19501877,13.97145557,-0.872959018,-1.381835938,-0.784667969,-0.013671875
66,1211332093,0.082278125,0.635312498,-0.028772913,0.767320514,10.01301098,0.389797747,1.893768549,-10.49190044,10.51542759,-1.924730897,-1.382324219,-0.770019531,-0.045898438
67,1211340426,0.08281026,0.63448602,-0.029426126,0.767921984,9.384917259,-0.131473646,2.369585276,-10.85675049,12.42012978,0.150855079,-1.361328125,-0.7578125,-0.070800781
68,1211348759,0.083398513,0.633791447,-0.029983109,0.768410146,9.224248886,-0.400537401,1.782801747,-10.33104229,10.48940182,-1.365930438,-1.363769531,-0.746582031,-0.088867188
69,1211357092,0.083960809,0.633128881,-0.03047622,0.768875718,9.198303223,-0.272950023,2.051571608,-9.289284706,9.710883141,-1.785517216,-1.339355469,-0.732421875,-0.109863281
70,1211365425,0.084459417,0.632434428,-0.030943753,0.769373894,9.220048904,-0.370445698,2.700983047,-8.601058006,10.64162827,-1.184684277,-1.337890625,-0.716796875,-0.125976563
71,1211373758,0.084993884,0.631922185,-0.031415649,0.769716501,9.558026314,-0.082676351,1.872352481,-8.695699692,7.076022625,-1.880289793,-1.315429688,-0.700195313,-0.137695313
72,1211382091,0.085402757,0.631390214,-0.031902671,0.770087779,9.938344955,0.690371752,1.675160766,-7.893014431,7.756374836,-0.281359583,-1.318359375,-0.684570313,-0.153808594
73,1211390424,0.085733257,0.630798876,-0.032476336,0.770511746,9.741892815,0.840908527,2.048503637,-8.071378708,8.418592453,1.288767457,-1.302246094,-0.667480469,-0.169921875
74,1211398757,0.086064234,0.630145252,-0.033177838,0.770979583,10.15292549,0.764741182,2.800229311,-9.589305878,9.59718132,2.572963238,-1.309082031,-0.653808594,-0.178222656
75,1211407090,0.086438686,0.629571736,-0.034044541,0.771368325,9.370779037,-0.104560919,1.886883974,-11.5536356,7.611130238,3.311319351,-1.291992188,-0.635742188,-0.190917969
76,1211415423,0.08674442,0.628957987,-0.034755915,0.771802783,9.945871353,0.575861156,1.859253049,-9.442432404,8.861745834,2.869447708,-1.300292969,-0.619140625,-0.197265625
77,1211423756,0.087009586,0.628157198,-0.035692099,0.7723822,8.98409462,0.0716324,2.898671865,-11.53089142,11.54821968,5.412276745,-1.283691406,-0.600097656,-0.213378906
78,1211432089,0.087387018,0.627589166,-0.036659524,0.77275604,9.279856682,-0.339252472,1.691095591,-12.75637722,7.581264019,4.224236488,-1.291503906,-0.582519531,-0.222167969
79,1211440422,0.08755324,0.626796842,-0.037492592,0.773339987,9.547152519,0.426356316,2.851932287,-9.571092606,11.57634258,5.577641964,-1.274902344,-0.563476563,-0.234863281
80,1211448755,0.087679282,0.625990033,-0.038546335,0.773927152,8.765787125,0.109987468,3.224820852,-11.6843195,11.72938824,8.015963554,-1.291015625,-0.547851563,-0.24609375
81,1211457088,0.087771147,0.625365496,-0.039639141,0.774366438,9.771084785,-0.009082615,1.822805047,-11.57177162,8.203767776,8.346336365,-1.274902344,-0.530273438,-0.261230469
82,1211465421,0.087441705,0.624450684,-0.040680259,0.775087655,9.577961922,0.831204414,2.91330409,-7.687962055,13.79927826,12.98067188,-1.279785156,-0.513671875,-0.275390625
83,1211473754,0.087095492,0.62357527,-0.041988533,0.775761366,9.497869492,0.92015487,2.432408333,-10.27617836,12.39989471,15.28098392,-1.270507813,-0.485839844,-0.290039063
84,1211482087,0.086639732,0.622603416,-0.043514505,0.776508451,9.821288109,0.533278644,2.349775791,-11.82681465,13.97606945,18.55420494,-1.272949219,-0.469238281,-0.301269531
85,1211490420,0.086096771,0.621524632,-0.045135401,0.777340353,9.7765522,-0.022544371,2.184734821,-12.08616066,15.44159126,20.3746109,-1.259765625,-0.447265625,-0.320800781
86,1211498753,0.085582234,0.620332003,-0.046757642,0.778253436,9.984230042,0.069340177,2.183874846,-12.51200104,17.60520363,20.33821869,-1.262207031,-0.424804688,-0.333496094
87,1211507086,0.085141569,0.61902374,-0.048389263,0.779242754,9.988142967,0.188094527,2.390836954,-13.2342701,19.30278587,19.70902824,-1.24609375,-0.398925781,-0.3515625
88,1211515419,0.084864058,0.617639005,-0.050023045,0.780268013,10.07470894,-0.608880281,2.337589502,-14.80806351,20.75947189,18.15365601,-1.24609375,-0.379882813,-0.359863281
89,1211523752,0.084706001,0.616128564,-0.051548153,0.781379342,10.19769764,-0.305934966,2.322249413,-14.65968132,22.83135986,16.05080414,-1.228027344,-0.359375,-0.377929688
90,1211532085,0.084616497,0.614540517,-0.053028971,0.782539725,10.03766441,-0.73470366,2.627537727,-14.90365696,24.39843941,15.13693905,-1.221191406,-0.337402344,-0.38671875
91,1211540418,0.084599316,0.612974286,-0.054391261,0.783675671,10.23026657,-0.901127458,2.334341288,-14.14865208,23.94053268,13.22929096,-1.201660156,-0.314941406,-0.3984375
92,1211548751,0.084558539,0.611258924,-0.055542685,0.784938216,10.26915073,-0.903906882,2.97934103,-11.84131813,27.049263,12.04734612,-1.198730469,-0.298339844,-0.403808594
93,1211557084,0.084651649,0.609605193,-0.05664802,0.786134124,10.46805286,-0.46874842,2.461630583,-12.36953354,25.78040123,10.00204659,-1.174804688,-0.279296875,-0.412597656
94,1211565417,0.084805988,0.60782975,-0.057726461,0.787412703,10.43381596,-0.427761495,2.901899338,-12.74639702,28.06744957,9.393220901,-1.169921875,-0.259277344,-0.420410156
95,1211573750,0.08506,0.60596031,-0.058680613,0.788754582,10.5283308,-0.792767346,2.839647055,-12.21172523,29.64398384,7.334219456,-1.147949219,-0.236328125,-0.42578125
96,1211582083,0.0854965,0.604061067,-0.059403222,0.790109038,10.5440855,-0.516602278,2.616653204,-11.32682896,30.68635368,3.553632021,-1.143066406,-0.220703125,-0.426269531
97,1211590416,0.086336806,0.602221906,-0.057404473,0.791567981,13.64539146,-3.15343976,2.853292465,15.13080406,34.2437973,-23.45292091,-1.122070313,-0.204101563,-0.428710938
98,1211598749,0.091159239,0.599958181,-0.055021606,0.792914391,2.923881531,19.30360222,5.923443794,-14.34754181,41.71844864,-69.69088745,-1.109863281,-0.197753906,-0.434082031
99,1211607082,0.091670312,0.596922934,-0.056853808,0.795014143,17.48127937,-13.42795181,-1.067733645,-25.03969955,47.62476349,13.52369976,-1.089355469,-0.174804688,-0.436523438
100,1211615415,0.093470111,0.594984233,-0.055995315,0.796317697,7.708453178,4.178913116,4.811570168,-5.536499977,33.67692184,-24.41312027,-1.083496094,-0.161621094,-0.436523438
101,1211623748,0.093989961,0.591895878,-0.057007723,0.798483431,12.38221645,-2.061633825,3.071407318,-16.29563713,49.76292801,6.81943512,-1.063964844,-0.145507813,-0.435058594
102,1211632081,0.094790347,0.58902669,-0.057842977,0.80044806,9.932806969,-2.07832408,2.992203951,-16.57723618,46.33577728,1.949286103,-1.064453125,-0.129882813,-0.434082031
103,1211640414,0.094829902,0.585696995,-0.058696143,0.802820802,11.63025093,-3.063901663,2.715049744,-10.80462646,53.91574097,11.2972784,-1.047851563,-0.108886719,-0.437988281
104,1211648747,0.094707176,0.582298934,-0.059202209,0.80526638,10.5473814,-2.972192049,2.909171343,-5.779202938,55.74452972,10.51419926,-1.051269531,-0.093261719,-0.436035156
105,1211657080,0.094407916,0.578755677,-0.059461966,0.807832539,11.36674213,-3.21816802,2.624615669,-1.644157171,58.33694839,10.69001865,-1.03515625,-0.076171875,-0.439453125
106,1211665413,0.093803152,0.574980855,-0.059345193,0.810602486,11.42351723,-2.747609854,3.314806223,4.752213001,62.9288063,11.6229496,-1.033691406,-0.060058594,-0.439453125
107,1211673746,0.093081295,0.570995569,-0.059043776,0.813519537,11.35431671,-2.152181149,2.705265045,7.680830479,66.43199921,11.7276659,-1.015625,-0.04296875,-0.438964844
108,1211682079,0.092252672,0.56690371,-0.058587231,0.816503286,11.3635807,-1.426454663,2.521559954,10.07436562,68.40822601,11.97858715,-1.018554688,-0.032714844,-0.444335938
109,1211690412,0.091416605,0.562503994,-0.057944648,0.819679856,11.76395798,-1.077679515,3.877529621,12.08247375,73.46183777,10.9941721,-1.003417969,-0.015625,-0.447265625
110,1211698745,0.090557888,0.557915092,-0.057231322,0.822955012,11.42190838,-0.948492289,2.640367746,12.79969501,76.56230164,11.08637524,-1.004394531,-0.00390625,-0.452636719
111,1211707078,0.089727826,0.55312562,-0.056470096,0.826324701,11.6719923,-0.322602332,3.321111441,13.06524277,79.51499176,10.5674572,-0.993164063,0.013183594,-0.456054688
112,1211715411,0.088998944,0.548066378,-0.055608362,0.829825699,11.53427601,-0.248571396,3.654254436,13.08916187,83.90769958,9.126768112,-0.987792969,0.024902344,-0.459472656
113,1211723744,0.088310651,0.5427984,-0.054780468,0.833408952,11.64570236,-0.59373945,3.032903671,12.30451012,86.78955078,9.075582504,-0.974121094,0.038574219,-0.461425781
114,1211732077,0.087633535,0.53723973,-0.05384377,0.837135196,11.9286623,-0.456339717,3.807157755,13.12228394,91.43791199,8.631844521,-0.976074219,0.046386719,-0.464355469
115,1211740410,0.087022237,0.531307518,-0.052802395,0.841042042,12.07278252,-1.003404737,3.167893887,13.61691284,97.14961243,7.488219261,-0.966796875,0.05859375,-0.469238281
116,1211748743,0.086326554,0.525152385,-0.051591557,0.845045209,12.16382217,-1.201680541,2.102371454,15.90398502,100.6713333,7.608766079,-0.958007813,0.065429688,-0.475097656
117,1211757076,0.085560434,0.518682241,-0.050152861,0.8491956,13.71987438,-0.900728405,3.271604776,18.89805603,105.5305099,7.081318855,-0.948242188,0.075683594,-0.481933594
118,1211765409,0.084692806,0.511685312,-0.048633676,0.853604436,14.07766247,0.381131113,3.706413984,20.01375008,113.6369705,8.460442543,-0.943847656,0.08203125,-0.487304688
119,1211773742,0.084198549,0.504178524,-0.04715208,0.858191073,14.03440475,1.041086316,3.011530876,16.57878876,121.0169754,4.789912224,-0.930664063,0.088378906,-0.495605469
120,1211782075,0.084273189,0.496209651,-0.045569457,0.862900972,14.35945797,0.921601772,2.467898369,13.26325798,127.8723831,-2.082544804,-0.928222656,0.091796875,-0.503417969
121,1211790408,0.084857382,0.487712801,-0.044031277,0.867754102,16.26505852,0.642271042,4.13547945,8.836940765,135.346283,-7.422690868,-0.916992188,0.096191406,-0.508789063
122,1211798741,0.085864142,0.478149235,-0.042256076,0.873049676,17.55008888,1.19397974,2.288202047,7.753280163,151.6140594,-12.79863071,-0.912109375,0.099609375,-0.517578125
123,1211807074,0.087930448,0.46758464,-0.040513989,0.878630757,18.22725487,3.826367617,2.709136248,-0.535184264,166.0817413,-24.47010422,-0.894042969,0.100097656,-0.526855469
124,1211815407,0.091637254,0.455596268,-0.039046936,0.884596169,19.35732079,4.214989185,3.283831835,-16.00649643,186.3441162,-41.17931747,-0.889160156,0.094238281,-0.537109375
125,1211823740,0.096989349,0.442206234,-0.037418988,0.890868545,19.51927185,5.322035313,0.692544222,-25.88238907,206.4532471,-61.13711166,-0.873046875,0.092773438,-0.548339844
126,1211832073,0.10431207,0.427754879,-0.036427319,0.897116601,18.38848877,6.723771572,-0.569676638,-47.16651154,219.4284973,-80.8249588,-0.865234375,0.086914063,-0.560058594
127,1211840406,0.113339074,0.412228435,-0.036954358,0.903247833,19.80289459,6.2107234,-1.256260872,-77.49640656,230.7922363,-92.60195923,-0.849121094,0.076660156,-0.576660156
128,1211848739,0.12319354,0.394944429,-0.038813841,0.909580171,19.81611252,5.591538429,-1.614505768,-101.4114914,252.0010834,-94.06531525,-0.835449219,0.072753906,-0.597167969
129,1211857072,0.133847818,0.376261145,-0.042464722,0.915810704,18.22090912,3.445052385,-0.323078334,-130.6041718,266.5387878,-93.79595947,-0.818359375,0.064453125,-0.619628906
130,1211865405,0.144566476,0.356102198,-0.04786633,0.921954989,17.24833488,-1.345101714,3.645508051,-155.7423401,281.3050232,-84.81663513,-0.803710938,0.061523438,-0.639160156
131,1211873738,0.153550103,0.334441155,-0.053152129,0.928303182,16.06822395,-7.958763123,10.4264555,-148.6692047,300.7137146,-61.99577713,-0.781738281,0.055664063,-0.662109375
132,1211882071,0.157544926,0.313038915,-0.054453731,0.934998214,17.34591484,-5.459783554,6.685234547,-74.01651001,303.4919739,-16.08122444,-0.762207031,0.05078125,-0.686523438
133,1211890404,0.15604502,0.291700751,-0.052195482,0.942250848,13.14156342,-0.409839034,2.302027464,-4.044039249,308.9833984,40.39680481,-0.744140625,0.044433594,-0.706054688
134,1211898737,0.152312919,0.272307485,-0.050133504,0.948755205,8.22536087,6.024637699,0.389735192,6.018282413,278.4343872,67.11982727,-0.724609375,0.034179688,-0.725097656
135,1211907070,0.148460016,0.254973143,-0.051126901,0.954114735,7.042166233,6.587840557,-1.034800172,-29.86699295,241.1629181,76.29169464,-0.714355469,0.024414063,-0.741699219
136,1211915403,0.144598007,0.239706218,-0.053207953,0.958541572,5.033642769,2.484281063,-1.569476962,-40.54488754,208.1692505,76.89435577,-0.705078125,0.021972656,-0.755859375
137,1211923736,0.141142309,0.228151187,-0.053299971,0.961865485,3.374522924,0.743989468,-2.150768995,-9.129751205,160.256485,60.03501511,-0.693847656,0.015136719,-0.766113281
138,1211932069,0.138960674,0.220356435,-0.052211501,0.964057684,3.209543228,2.851198196,-2.533611536,8.996592522,109.7861786,34.56202316,-0.696777344,0.011230469,-0.779296875
139,1211940402,0.138116673,0.215706438,-0.051742908,0.965255201,3.898550034,3.213568926,-4.579315662,1.996509552,65.27949524,14.53377914,-0.688964844,-0.001464844,-0.782226563
140,1211948735,0.137264758,0.212760299,-0.051637359,0.966035843,3.372158289,4.538374424,-3.687131166,0.164238751,40.30760193,13.72420597,-0.692871094,-0.009277344,-0.790039063
141,1211957068,0.136481613,0.212670133,-0.053794418,0.966048956,0.763537049,4.258670807,-2.863674879,-25.29849243,-3.655243635,15.93839169,-0.699707031,-0.015136719,-0.79296875
142,1211965401,0.136098698,0.215824366,-0.057899266,0.965165794,3.137974977,0.055213671,-4.595496178,-46.86966324,-53.18237305,12.25042057,-0.711914063,-0.024414063,-0.800292969
143,1211973734,0.134596556,0.220256597,-0.060507365,0.964214683,5.504375458,-2.897531986,-5.560705662,-21.42174911,-67.98152924,21.51284599,-0.720214844,-0.027832031,-0.798828125
144,1211982067,0.131906539,0.2249825,-0.060635146,0.963487029,5.648219585,-1.494551897,-4.641689777,15.87156868,-68.05129242,29.92683601,-0.735351563,-0.032714844,-0.804199219
145,1211990400,0.129544914,0.229711056,-0.059580818,0.96275717,4.476769924,0.098665163,-3.449398518,30.4557972,-65.1882782,21.89406776,-0.747558594,-0.046875,-0.798339844
146,1211998733,0.128329113,0.234978452,-0.058256079,0.961729348,2.576252937,0.732503295,-2.793227434,31.19700241,-72.32965851,4.916935444,-0.764160156,-0.057617188,-0.799804688
147,1212007066,0.127703786,0.241668731,-0.057023138,0.960227489,1.84904182,0.804704309,-2.627650261,30.15054131,-91.85237885,-4.589481831,-0.773925781,-0.068359375,-0.80078125
148,1212015399,0.127076998,0.249586388,-0.055724904,0.958359778,1.954523921,0.350898176,-2.634138823,32.94233322,-109.6774216,-6.376122952,-0.791503906,-0.080078125,-0.797363281
149,1212023732,0.126165271,0.258726269,-0.054122601,0.956145525,1.782071948,0.516169131,-2.363556862,39.7305069,-126.1387024,-5.235220432,-0.806152344,-0.093261719,-0.791015625
150,1212032065,0.125103831,0.26919958,-0.052484132,0.953481197,1.833605409,1.169959903,-2.121055365,42.78412628,-145.8470154,-5.139946461,-0.822265625,-0.112304688,-0.787109375
151,1212040398,0.124263771,0.280913144,-0.051075205,0.95028311,2.406594992,1.299708009,-2.022536039,40.63294601,-163.7866669,-9.034264565,-0.845214844,-0.127441406,-0.78125
152,1212048731,0.123711705,0.293526143,-0.049865056,0.94660008,2.868301153,1.579317451,-1.753389001,38.19121933,-178.0865173,-13.46193218,-0.873535156,-0.14453125,-0.775878906
153,1212057064,0.123306155,0.307060659,-0.049211212,0.942384243,3.157520533,1.890470266,-1.351492643,31.47943306,-192.543396,-14.68580341,-0.894042969,-0.16015625,-0.764160156
154,1212065397,0.122940779,0.321382791,-0.049247611,0.937642753,3.739432812,1.70004034,-1.135198355,23.42455292,-206.6506195,-13.69423962,-0.921875,-0.1796875,-0.754394531
155,1212073730,0.122548752,0.336408854,-0.049829565,0.932377934,4.42509079,1.496036053,-0.994332194,17.25031662,-218.4340363,-12.31938076,-0.9453125,-0.197753906,-0.741699219
156,1212082063,0.122241348,0.351956517,-0.050884716,0.926604152,4.907546043,1.760682821,-0.761822402,11.41427135,-228.7653046,-12.41210747,-0.980957031,-0.220214844,-0.732421875
157,1212090396,0.122202516,0.368077099,-0.052655187,0.920224726,5.56306982,2.307288647,-0.536126852,1.442487478,-239.4528351,-13.79774284,-1.008789063,-0.23828125,-0.713378906
158,1212098729,0.1225437,0.384514004,-0.055319197,0.913275361,6.488311768,2.304340601,-0.212570652,-11.57218266,-248.1270905,-15.26354694,-1.044921875,-0.266113281,-0.699707031
159,1212107062,0.123232685,0.401130646,-0.058756951,0.90579015,7.462124825,2.215639591,0.177309364,-23.35394096,-253.6859894,-16.5819931,-1.075195313,-0.286132813,-0.682617188
160,1212115395,0.124315053,0.417665571,-0.062903695,0.89785558,8.199707031,1.701895237,0.610264659,-34.73865509,-256.6022034,-18.26416016,-1.11328125,-0.314941406,-0.656738281
161,1212123728,0.125720322,0.434270263,-0.067461163,0.889411628,8.550952911,0.522949398,0.881482899,-42.10834885,-260.2254639,-20.78879356,-1.143066406,-0.340820313,-0.634277344
162,1212132061,0.127180293,0.451061606,-0.071985595,0.88044703,9.158017159,-0.764211833,1.075449944,-42.07014465,-266.0994873,-22.7639637,-1.186035156,-0.373535156,-0.607910156
163,1212140394,0.128314614,0.468149126,-0.075996622,0.8709746,10.07523823,-1.965739846,1.239575863,-33.96271133,-271.6584167,-23.14863586,-1.212402344,-0.408203125,-0.577636719
164,1212148727,0.128969505,0.485403687,-0.079092078,0.861101091,11.09857082,-2.786533594,1.50478518,-19.88824081,-275.7297668,-24.22115517,-1.25390625,-0.445800781,-0.539550781
165,1212157060,0.129083484,0.502867222,-0.080857717,0.85083735,12.14762878,-3.410660744,1.857169747,-0.706284285,-278.4229431,-27.55794716,-1.279296875,-0.490234375,-0.499511719
166,1212165393,0.128504828,0.52037251,-0.081054591,0.840315044,12.93834496,-3.172187805,2.235561609,22.34923172,-279.2993469,-30.86193657,-1.317382813,-0.536132813,-0.448242188
167,1212173726,0.12722674,0.537986219,-0.079762928,0.829471111,13.64221287,-2.794126272,2.514156342,44.28701019,-280.3795166,-34.07435226,-1.336425781,-0.584960938,-0.385742188
168,1212182059,0.125259399,0.555554509,-0.077031389,0.818373859,14.74489784,-1.987032413,2.68759203,65.5580368,-280.5970154,-37.30613708,-1.365722656,-0.638671875,-0.31640625
169,1212190392,0.122727089,0.5729177,-0.073142335,0.80706507,15.77222443,-0.744640827,3.158563614,82.19200897,-277.8823853,-39.92292023,-1.3671875,-0.690917969,-0.234375
170,1212198725,0.119758755,0.589850962,-0.068493105,0.795639932,16.58946419,0.65354985,3.763234615,93.35429382,-273.8118591,-40.85139847,-1.387207031,-0.748046875,-0.146484375
171,1212207058,0.116673328,0.606296301,-0.06363818,0.784055412,16.96964455,2.067605495,4.57424593,95.51593781,-268.9073486,-41.0427475,-1.370117188,-0.791015625,-0.051757813
172,1212215391,0.113911144,0.622192204,-0.058929019,0.772288144,17.19855309,2.589617968,5.276098728,90.29250336,-265.0882263,-43.12507248,-1.361816406,-0.841308594,0.046875
173,1212223724,0.111605428,0.637539446,-0.054489929,0.760341465,17.4229126,3.029973507,6.035776615,82.3908844,-260.232605,-45.49971008,-1.312011719,-0.874023438,0.139648438
174,1212232057,0.11001198,0.652216733,-0.050633248,0.748296559,17.36021996,2.666236162,6.748681545,69.07645416,-255.0619354,-47.48832321,-1.286132813,-0.904785156,0.233398438
175,1212240390,0.108937927,0.666362882,-0.047404453,0.736102104,17.48209381,1.99391377,7.258628845,56.92792892,-250.9467316,-47.04858017,-1.221679688,-0.921386719,0.312988281
176,1212248723,0.108252995,0.679977775,-0.044933036,0.723804414,17.89273262,1.017331719,7.502359867,44.95066833,-247.9741211,-43.86221695,-1.186523438,-0.944824219,0.389648438
177,1212257056,0.10766121,0.693059087,-0.04318653,0.711486936,18.47579384,0.133756623,7.743020058,35.92817688,-243.3425446,-37.69810104,-1.11328125,-0.941894531,0.453613281
178,1212265389,0.107007235,0.705497622,-0.042067733,0.699323595,18.74542427,-0.210574016,8.165880203,29.64841652,-237.0751343,-30.5109539,-1.075683594,-0.948730469,0.519042969
179,1212273722,0.106422052,0.717282176,-0.041463755,0.687358618,18.84291458,0.810644805,8.682678223,23.07743263,-229.1150208,-25.49549294,-1.006347656,-0.942871094,0.573730469
180,1212282055,0.106601119,0.728216708,-0.041633375,0.675724566,18.43616867,2.663811445,10.5166378,7.274919987,-218.9742126,-24.13043594,-0.968261719,-0.938964844,0.620117188
181,1212290388,0.108287647,0.738248467,-0.042797033,0.664403319,18.05596733,2.754323244,12.21412945,-18.28528023,-207.656601,-27.20079231,-0.90234375,-0.924316406,0.648925781
182,1212298721,0.110879086,0.747146785,-0.044794418,0.653812885,17.25037193,3.778525591,14.20000553,-36.26576233,-190.9795837,-25.25700569,-0.872558594,-0.921875,0.681152344
183,1212307054,0.114533946,0.754839122,-0.047764752,0.644064367,16.09962273,4.26332283,16.25945473,-57.33200836,-172.0206757,-22.77546501,-0.809570313,-0.907226563,0.693359375
184,1212315387,0.119573414,0.761131167,-0.051104225,0.635429263,14.96008968,3.967730045,18.78362656,-76.37528229,-148.0248718,-28.5533905,-0.788574219,-0.904296875,0.708984375
185,1212323720,0.126515329,0.7659899,-0.054240365,0.627942443,14.26593018,1.30773735,20.71372032,-96.09866333,-121.6439743,-44.37483978,-0.735351563,-0.897460938,0.700683594
186,1212332053,0.13500686,0.76925534,-0.056758873,0.621931195,14.16015911,-4.603358746,22.11677742,-108.7219238,-90.27526093,-60.54132843,-0.721679688,-0.900878906,0.69921875
187,1212340386,0.142650664,0.771013379,-0.058426216,0.617880225,13.82307625,-11.3719244,22.92026901,-93.74236298,-55.71720886,-57.44153595,-0.673828125,-0.897460938,0.6796875
188,1212348719,0.146692723,0.771573186,-0.059276044,0.616151631,13.47352505,-13.90299606,22.88701439,-49.0928688,-22.21258545,-30.02385139,-0.675292969,-0.911132813,0.681152344
189,1212357052,0.146858305,0.771005332,-0.059629008,0.616788387,12.52282715,-11.78807354,21.63932037,-4.045717716,10.12936783,3.194723129,-0.65625,-0.901855469,0.666015625
190,1212365385,0.144957453,0.769393861,-0.059356164,0.619271815,10.9904232,-8.709807396,19.36602783,22.52642059,38.28414917,18.71680641,-0.671875,-0.912109375,0.676757813
191,1212373718,0.142170206,0.767077863,-0.057965167,0.622912288,10.07380104,-6.214809418,16.62918854,41.06076813,57.72482681,17.16754532,-0.672363281,-0.898925781,0.668457031
192,1212382051,0.138920456,0.764240265,-0.055789061,0.627316475,10.01982021,-4.36220789,14.07648659,52.15992737,71.71942902,14.90557861,-0.698242188,-0.90234375,0.681152344
193,1212390384,0.135166958,0.760920048,-0.053290151,0.632369459,10.11053944,-3.567216635,11.96054077,59.94582367,82.50500488,17.27141762,-0.702148438,-0.894042969,0.66796875
194,1212398717,0.128651887,0.756290555,-0.052048665,0.639346957,16.80353165,-5.634054184,9.201457024,76.75423431,110.0971527,59.17705917,-0.741699219,-0.900878906,0.683105469
195,1212407050,0.120560199,0.750182748,-0.048873387,0.6483078,1.833672285,-2.517980576,8.090760231,109.1134033,145.5018768,57.27386093,-0.759277344,-0.887695313,0.673828125
196,1212415383,0.113435328,0.745712817,-0.047596894,0.654812872,14.17908001,-3.891812563,3.448382378,83.1213913,103.5791321,63.29259872,-0.802734375,-0.895507813,0.68359375
197,1212423716,0.104407057,0.740544379,-0.03958324,0.66266638,24.76343918,5.248718739,-16.39553833,163.2654877,132.3917236,13.68228817,-0.812988281,-0.875488281,0.679199219
198,1212432049,0.101193145,0.735509515,-0.038785271,0.668791234,36.96279907,20.20376968,-27.95155716,37.38323975,106.9429398,31.84663582,-0.848144531,-0.878417969,0.691894531
199,1212440382,0.091917053,0.718760848,-0.03916366,0.68804121,9.562988281,-14.77187538,-9.954396248,78.75417328,342.0678101,123.8261414,-0.879882813,-0.862792969,0.658203125
200,1212448715,0.083285309,0.710687816,-0.03606236,0.697629154,5.336774826,6.146464825,4.70542717,110.8996964,169.7209778,66.63580322,-0.944824219,-0.853515625,0.659179688
201,1212457048,0.077021435,0.701421916,-0.035225462,0.707696736,8.669636726,-8.650864601,15.04819584,65.03063965,184.0276337,67.01985931,-0.966796875,-0.83984375,0.643066406
202,1212465381,0.072599828,0.695171773,-0.03281584,0.714415252,4.612011433,-0.087944686,17.215271,64.01164246,125.3348846,29.08294678,-1.020996094,-0.836914063,0.640625
203,1212473714,0.069449261,0.69132638,-0.030415192,0.718554199,9.178959846,-2.377728462,2.88874507,53.14582443,77.14990997,12.85561848,-1.029296875,-0.835449219,0.626464844
204,1212482047,0.066885911,0.687515795,-0.02741624,0.72256285,12.40579891,-0.419471055,-5.795277596,53.31701279,76.84615326,1.390568972,-1.067382813,-0.844238281,0.629394531
205,1212490380,0.063829064,0.682007313,-0.024438724,0.728144884,9.251265526,0.766299188,-2.20945096,56.96095276,107.8778839,8.430101395,-1.068847656,-0.841308594,0.619140625
206,1212498713,0.061006129,0.67680496,-0.022279564,0.733292162,8.981660843,0.644145548,3.300011873,46.53602982,100.6050186,13.43300724,-1.111328125,-0.849121094,0.608398438
207,1212507046,0.059243385,0.672160089,-0.021025173,0.737732589,8.003891945,-0.390877396,4.370090961,27.94245911,87.50079346,10.2517786,-1.104492188,-0.842285156,0.590332031
208,1212515379,0.058134973,0.668695092,-0.020263411,0.740983725,8.580860138,0.527278304,3.106017828,17.36755753,64.79374695,7.005867004,-1.133789063,-0.850585938,0.579101563
209,1212523712,0.057169031,0.665609419,-0.019817792,0.743843555,8.990736008,0.51149106,0.393635064,13.18638897,56.64419556,7.89839077,-1.139160156,-0.849121094,0.555664063
210,1212532045,0.055786982,0.663044155,-0.018965393,0.746257901,8.741629601,-0.156992912,0.268423587,21.28669739,47.92426682,8.08265686,-1.170410156,-0.854980469,0.545410156
211,1212540378,0.053997718,0.660510123,-0.017819693,0.748660982,8.377785683,1.576502442,1.414691567,28.18269539,47.15367126,9.442444801,-1.173828125,-0.850585938,0.530273438
212,1212548711,0.052522972,0.658454418,-0.016946012,0.750594616,8.820249557,2.175735474,1.519203305,22.61304283,38.30801773,8.337204933,-1.207519531,-0.857910156,0.523925781
213,1212557044,0.051246643,0.656220317,-0.016695488,0.752642035,10.77440643,2.349243641,2.266887426,14.43412113,40.32621384,11.94069862,-1.212402344,-0.85546875,0.513183594
214,1212565377,0.0500944,0.653955877,-0.017209563,0.754676282,9.478138924,1.05136764,3.478350163,5.224711418,40.46020508,17.66833305,-1.245117188,-0.861328125,0.502929688
215,1212573710,0.049201775,0.652368844,-0.017685169,0.756096363,8.602566719,-0.40243721,2.764909983,3.739847898,27.5537796,13.94787216,-1.253417969,-0.856445313,0.48828125
216,1212582043,0.048475079,0.650975049,-0.017896488,0.757338643,9.183767319,0.241552413,2.529650927,4.957241535,24.6088295,9.78145504,-1.284667969,-0.857910156,0.475097656
217,1212590376,0.048116986,0.649665236,-0.018344156,0.758474529,8.06892395,-0.66790849,2.368662596,-0.641918659,22.28256416,7.878033161,-1.283691406,-0.852539063,0.456054688
218,1212598709,0.048111264,0.648573339,-0.018685121,0.759400547,8.616595268,-1.253753662,2.153751135,-2.718234539,18.72499657,3.14495492,-1.314453125,-0.85546875,0.44140625
219,1212607042,0.048343964,0.647501349,-0.018782759,0.760297537,8.960524559,-0.966603279,3.044290781,-2.172369242,18.05515671,-1.632523537,-1.31640625,-0.849609375,0.420898438
220,1212615375,0.048865855,0.646627903,-0.018842697,0.7610057,10.10532188,-0.25812906,2.584234715,-4.395454884,14.82515144,-5.075768471,-1.345703125,-0.852050781,0.406738281
221,1212623708,0.049441393,0.64570272,-0.018959651,0.761750996,10.63060474,0.122355975,2.219725132,-5.360394478,15.24916744,-5.185730457,-1.347167969,-0.848144531,0.384765625
222,1212632041,0.050108258,0.644846261,-0.019138873,0.762427986,10.38292503,-0.396298528,2.003124714,-6.928600788,14.32738876,-5.56016016,-1.374023438,-0.846679688,0.362304688
223,1212640374,0.050937146,0.643846095,-0.019318253,0.763213456,9.932192802,-0.180971935,2.252119541,-8.30598259,16.42755508,-7.239328861,-1.374511719,-0.842773438,0.331542969
224,1212648707,0.05187659,0.643017054,-0.019505408,0.763844132,9.842798233,-0.481623679,1.86485815,-9.419202805,13.69576931,-8.389971733,-1.403320313,-0.846191406,0.309082031
225,1212657040,0.052828904,0.6422382,-0.019551478,0.764432669,9.890645981,-0.37595582,1.450711727,-7.90417099,12.50255394,-9.91312027,-1.397949219,-0.836914063,0.278808594
226,1212665373,0.053718515,0.641323745,-0.019600932,0.765136778,9.30264473,0.122019738,2.546063423,-7.575489044,15.32652473,-9.007069588,-1.428222656,-0.8359375,0.245605469
227,1212673706,0.054645702,0.640668809,-0.019649468,0.765618503,9.87050724,0.443108797,2.006230116,-7.632172108,10.26699448,-9.744168282,-1.423339844,-0.822753906,0.215332031
228,1212682039,0.055394381,0.639896631,-0.019888503,0.766204119,9.717851639,0.438666403,2.130647898,-8.258979797,12.60226917,-5.977697372,-1.445800781,-0.823242188,0.18359375
229,1212690372,0.056019139,0.639173508,-0.020179015,0.766754448,9.286539078,0.035739049,1.902844906,-7.552793503,11.33605385,-4.356648445,-1.4375,-0.811035156,0.145996094
230,1212698705,0.056459904,0.638461888,-0.020498671,0.767306328,9.639088631,0.539922178,2.636550665,-6.364626408,11.52122021,-2.064559221,-1.452148438,-0.803710938,0.114257813
231,1212707038,0.056832045,0.637808025,-0.021014422,0.767808557,9.692505836,-0.036315087,2.524232149,-7.682940006,9.948583603,0.229285881,-1.432617188,-0.791503906,0.078613281
232,1212715371,0.057163954,0.637271106,-0.021553548,0.768214822,9.953404427,0.006473455,1.81035614,-7.629968643,8.1992836,0.847229302,-1.441894531,-0.784667969,0.047363281
233,1212723704,0.05741125,0.636566937,-0.022158353,0.768762708,9.884588242,0.414456099,2.76633358,-7.55420208,10.78199291,2.385594845,-1.420410156,-0.766601563,0.017578125
234,1212732037,0.057700735,0.636054754,-0.022805903,0.769145966,9.753805161,-0.23339954,2.225203753,-8.390685081,7.638075352,2.218179941,-1.429199219,-0.759277344,-0.01171875
235,1212740370,0.058008615,0.63548851,-0.023432661,0.769571781,9.798412323,-0.366650552,1.910554767,-8.247912407,8.269415855,1.801692486,-1.405761719,-0.742675781,-0.030761719
236,1212748703,0.058380153,0.634874403,-0.024053413,0.770031452,9.190776825,-0.397455692,2.059222221,-8.88048172,9.431405067,1.208723068,-1.401855469,-0.727539063,-0.058105469
237,1212757036,0.058885887,0.634315073,-0.02463094,0.770435274,9.361814499,-0.545986116,1.749914646,-9.457853317,8.119188309,-0.743658185,-1.380371094,-0.7109375,-0.079101563
238,1212765369,0.059403293,0.633707345,-0.0252067,0.770876825,9.581285477,-0.800218999,1.985461235,-9.677981377,9.291730881,-0.745220602,-1.376464844,-0.696777344,-0.096191406
239,1212773702,0.059944019,0.633117497,-0.025716797,0.77130276,9.743485451,-0.454895139,1.654188395,-9.065673828,8.715515137,-1.680294275,-1.353027344,-0.681152344,-0.112304688
240,1212782035,0.060453955,0.632429123,-0.02614994,0.771812975,10.15622997,0.055375472,2.709843159,-8.144738197,10.85911846,-1.823759556,-1.356445313,-0.667480469,-0.125488281
241,1212790368,0.060984902,0.631733418,-0.026733417,0.772320747,9.810819626,0.108383432,2.478253365,-9.810559273,10.50064564,-0.834537446,-1.338378906,-0.651367188,-0.142089844
242,1212798701,0.061628543,0.6311602,-0.02740399,0.772714794,10.47477436,0.244889557,1.437533021,-11.77337933,8.476224899,-1.318825722,-1.338378906,-0.639160156,-0.153320313
243,1212807034,0.062081628,0.630206883,-0.028139476,0.773429751,10.1509409,0.386624306,2.972755194,-10.91061687,14.88234901,1.590938926,-1.322753906,-0.622558594,-0.166503906
244,1212815367,0.062670201,0.629374683,-0.02905014,0.774025977,9.311421394,0.021601394,2.276685238,-13.99026871,12.76192474,1.612864733,-1.331054688,-0.608398438,-0.178710938
245,1212823700,0.063271865,0.628483295,-0.030028384,0.774663866,9.882436752,0.088789418,2.062055349,-14.74929714,13.41857338,2.026329994,-1.309570313,-0.587890625,-0.193847656
246,1212832033,0.063721858,0.627504885,-0.031053921,0.7753793,9.469117165,0.223252416,2.41597867,-14.09375191,15.19156361,4.24693203,-1.316894531,-0.575683594,-0.204101563
247,1212840366,0.064204395,0.626488805,-0.03221523,0.77611351,9.512269974,0.369046211,1.931160927,-15.75616932,15.37995911,5.010877132,-1.308105469,-0.553710938,-0.220703125
248,1212848699,0.064627573,0.62541616,-0.033414617,0.776892364,9.755822182,0.536415994,2.398890495,-15.77186966,16.58047295,6.130578041,-1.313964844,-0.533203125,-0.232910156
249,1212857032,0.064960934,0.624221504,-0.034802292,0.777763903,9.594717026,0.674352884,2.851267815,-16.98019791,18.20974731,8.75796032,-1.299316406,-0.517578125,-0.25
250,1212865365,0.065324225,0.623053312,-0.03637825,0.778597534,9.704301834,0.449198395,1.889347076,-19.34259987,17.70847702,10.09738064,-1.307617188,-0.496582031,-0.260742188
251,1212873698,0.065617219,0.621730566,-0.038058367,0.779549301,10.04673481,0.176218003,2.060814142,-19.83737183,19.99337387,11.84214878,-1.295410156,-0.473632813,-0.282714844
252,1212882031,0.065858252,0.620322108,-0.039781258,0.780564547,9.855140686,-0.148961753,2.517799139,-19.99428368,21.64252281,12.95119667,-1.300292969,-0.452636719,-0.296875
253,1212890364,0.066069424,0.618761897,-0.041507803,0.781694412,10.15484428,-0.292165518,3.153355598,-19.75950623,23.9871521,13.40662003,-1.279785156,-0.435058594,-0.314941406
254,1212898697,0.066425286,0.617282212,-0.043268327,0.782737911,9.879120827,-0.201405764,1.648340821,-21.42486763,22.6806736,12.09760189,-1.284667969,-0.413085938,-0.33203125
255,1212907030,0.066759236,0.615546167,-0.044936366,0.7839818,10.3725071,-0.458042532,2.4880445,-20.28140068,26.97867203,11.80158043,-1.265625,-0.391601563,-0.34765625
256,1212915363,0.06713324,0.613758445,-0.04650959,0.78525871,9.756433487,-0.735231221,2.48135066,-19.70205498,28.16058731,10.71110344,-1.260253906,-0.372558594,-0.360351563
257,1212923696,0.067689076,0.611970365,-0.047953263,0.786518514,10.24415779,-0.717707694,2.126298904,-19.76960373,28.03108788,7.559679031,-1.236816406,-0.348144531,-0.378417969
258,1212932029,0.068410277,0.609991312,-0.048862547,0.78793633,10.69555187,-0.382621557,3.796806335,-15.5350008,32.25779724,1.626313686,-1.239257813,-0.33203125,-0.387207031
259,1212940362,0.070048347,0.607876182,-0.046824083,0.789548934,12.08067322,1.136971831,3.11804986,8.786971092,38.54217529,-32.84771729,-1.213378906,-0.310058594,-0.3984375
260,1212948695,0.074843831,0.605885088,-0.046303317,0.790669203,6.181067467,16.59990883,5.560159683,-34.35190201,33.86487961,-54.90798187,-1.200683594,-0.309082031,-0.407714844
261,1212957028,0.076832235,0.603239834,-0.04814994,0.792388976,15.3604393,-10.3465662,0.269839674,-36.92885971,41.53898621,-3.714995861,-1.179199219,-0.284667969,-0.413574219
262,1212965361,0.079592593,0.601245403,-0.048690137,0.793598473,9.066307068,5.104813576,4.698174477,-28.815485,32.31546021,-23.84703064,-1.168457031,-0.271972656,-0.420898438
263,1212973694,0.080971576,0.59807688,-0.050111584,0.795761764,10.82159901,-2.800921917,2.133951902,-27.59375572,50.92735672,0.27936247,-1.14453125,-0.251953125,-0.423828125
264,1212982027,0.08337304,0.595574677,-0.05170358,0.797287226,10.50618076,-1.11262548,2.577651739,-37.63038635,39.10186386,-10.61239147,-1.13671875,-0.234375,-0.431152344
265,1212990360,0.084337287,0.592262447,-0.053337075,0.799542308,10.98563385,-4.207933903,2.515553236,-26.66124725,52.69334412,6.842901707,-1.118164063,-0.213378906,-0.438476563
266,1212998693,0.085121378,0.589047909,-0.054603525,0.801745415,10.28809071,-4.586080074,2.624267817,-21.14682198,51.68315887,5.756942749,-1.116210938,-0.1953125,-0.438964844
267,1213007026,0.085374027,0.585714579,-0.055409621,0.804101884,10.73024845,-4.589936256,2.418847322,-11.70958042,54.19460678,8.091956139,-1.094726563,-0.178222656,-0.442871094
268,1213015359,0.085181937,0.582212508,-0.05569917,0.806641638,10.86425591,-4.647734642,2.914936066,-2.555181265,57.98620987,9.256973267,-1.092285156,-0.155761719,-0.447265625
269,1213023692,0.084631473,0.578575194,-0.055604544,0.809318602,11.03712463,-4.080882072,2.547910452,4.609335423,60.59030151,10.32855225,-1.073730469,-0.141601563,-0.446289063
270,1213032025,0.083710589,0.574806273,-0.055157341,0.812125802,11.20987225,-2.989279509,3.119258881,11.34099007,63.38864517,11.98905754,-1.069824219,-0.122558594,-0.453125
271,1213040358,0.082616657,0.570777655,-0.054408632,0.815124214,11.38630772,-2.254190683,3.299012661,16.01207733,67.8575592,11.84052467,-1.056640625,-0.108886719,-0.453613281
272,1213048691,0.081445366,0.566594064,-0.053537533,0.818212748,11.73925591,-1.239733815,3.103041172,17.79359055,70.54090118,12.08179283,-1.050292969,-0.097167969,-0.455566406
273,1213057024,0.080288924,0.562147498,-0.052607864,0.821447909,11.85591984,-0.508458853,3.491549969,18.27789116,74.57054138,11.70029926,-1.038085938,-0.078125,-0.459960938
274,1213065357,0.079139717,0.557398438,-0.051659435,0.824848771,11.73806381,-0.224629372,3.193045855,18.09025383,79.44384003,11.99075031,-1.037109375,-0.065429688,-0.466308594
275,1213073690,0.078085437,0.552356482,-0.050738871,0.82839036,11.77676105,-0.159344077,3.483491898,16.93750763,83.74278259,11.36783791,-1.024414063,-0.055664063,-0.470214844
276,1213082023,0.077071428,0.547062755,-0.049767394,0.832049012,11.76056385,-0.178339541,3.349139452,16.91398239,87.72306061,10.94502831,-1.016601563,-0.042480469,-0.474609375
277,1213090356,0.076063856,0.54144752,-0.048832409,0.835861623,11.912117,0.200781509,3.60577035,16.32673264,92.39652252,11.41805935,-1.004394531,-0.026367188,-0.477050781
278,1213098689,0.075202659,0.535515547,-0.047873627,0.839807272,11.9846344,0.31353125,3.671438932,15.15375328,97.27833557,10.02113056,-1.001953125,-0.015625,-0.482421875
279,1213107022,0.074505873,0.529291868,-0.046944626,0.843857706,12.39473248,0.668742836,3.757866859,13.46925449,101.3815842,8.534114838,-0.98828125,-0.005859375,-0.487792969
280,1213115355,0.0740318,0.522633195,-0.04602905,0.848089576,12.82884121,0.230992407,3.402024746,11.26130009,107.996048,6.62305212,-0.985839844,0.006835938,-0.494628906
281,1213123688,0.073775411,0.515552819,-0.045026127,0.852487862,13.31445122,-0.137023464,1.757778406,10.50533962,114.2396622,3.804219007,-0.973632813,0.017089844,-0.503417969
282,1213132021,0.073694281,0.508132637,-0.043991156,0.856992185,14.6183672,-0.341015697,3.2374084,9.245754242,119.21138,1.92785418,-0.966308594,0.022949219,-0.505859375
283,1213140354,0.073578179,0.499894917,-0.042926311,0.861886919,16.07748222,0.34536919,4.085691452,9.348146439,131.5130463,2.928302288,-0.956054688,0.032714844,-0.515136719
284,1213148687,0.074082665,0.490757942,-0.041975625,0.86712569,15.68129063,2.361852169,2.0821383,2.923727036,144.8611908,-2.669923544,-0.950683594,0.037109375,-0.5234375
285,1213157020,0.075889617,0.480840266,-0.041126102,0.872549355,16.87066269,3.219058752,3.273644209,-7.659540653,156.0223694,-16.96139908,-0.939453125,0.04296875,-0.53515625
286,1213165353,0.078626119,0.469863683,-0.040298477,0.878306568,17.41428375,2.679574251,3.126505375,-15.08767414,171.4846191,-26.94131088,-0.934570313,0.043945313,-0.543945313
287,1213173686,0.08267197,0.458334535,-0.039680354,0.884036601,19.09547806,3.581625938,2.266325474,-26.61423492,178.4803925,-41.20321274,-0.913085938,0.045898438,-0.551757813
288,1213182019,0.088229492,0.445569128,-0.039149877,0.890028954,21.28733063,3.383323908,1.249175549,-38.5463295,195.8897552,-57.97991943,-0.912109375,0.043945313,-0.567382813
289,1213190352,0.094634533,0.430782199,-0.038706105,0.896645486,20.82148361,5.403592587,-0.563458622,-46.8612175,224.8651886,-66.02698517,-0.894042969,0.041015625,-0.578613281
290,1213198685,0.102546997,0.414920241,-0.039169099,0.903211713,19.48207474,6.951058865,-0.424797922,-68.45568848,237.3939362,-78.68663025,-0.885253906,0.033203125,-0.595703125
291,1213207018,0.112398282,0.39793855,-0.040883429,0.909582675,20.67603874,6.407102585,-1.663529634,-96.73616791,249.6024017,-95.34393311,-0.865234375,0.032714844,-0.610839844
292,1213215351,0.123721093,0.37917468,-0.044343863,0.915944278,20.05632591,3.975918293,-2.035212994,-129.4060669,269.8472595,-103.1667252,-0.850585938,0.025878906,-0.636230469
293,1213223684,0.134894758,0.358705789,-0.049259085,0.922338068,18.71398544,0.257999539,1.415954709,-149.8616791,289.1487732,-92.60971832,-0.830566406,0.020996094,-0.661621094
294,1213232017,0.144735619,0.336302131,-0.055379428,0.928916514,16.93130875,-9.091432571,10.79337406,-162.0140076,311.2466736,-68.10444641,-0.814453125,0.020996094,-0.686035156
295,1213240350,0.150665268,0.314439088,-0.056122042,0.935563207,19.90935898,-7.955432415,4.669223785,-74.16176605,312.6806641,-43.30409622,-0.789550781,0.014160156,-0.712402344
296,1213248683,0.150585696,0.291188091,-0.052699108,0.943269134,14.95841408,0.023476556,-0.001283526,3.43239975,338.81073,19.28527451,-0.772949219,0.002929688,-0.736328125
297,1213257016,0.147930279,0.269737333,-0.050546277,0.950159907,6.499172688,5.390482426,-1.37300992,0.396862775,308.0456848,54.74568939,-0.747558594,-0.004394531,-0.753417969
298,1213265349,0.145436332,0.251437694,-0.051643524,0.955489755,8.262659073,5.513623714,-2.547288418,-37.33378983,254.2182007,59.37353897,-0.735351563,-0.012695313,-0.772460938
299,1213273682,0.142500192,0.233390182,-0.0538393,0.960377157,12.04144955,2.434341908,-3.511916399,-50.06709671,247.2689972,67.89323425,-0.723144531,-0.015625,-0.787597656
300,1213282015,0.139187872,0.214378849,-0.054991283,0.965217412,11.1319952,-0.327712208,-3.593633175,-36.98040771,261.2095032,70.15834045,-0.706542969,-0.018066406,-0.806152344
301,1213290348,0.135318667,0.195534721,-0.054455116,0.969788611,9.017658234,-2.136681318,-2.82879138,-12.83831596,261.4691162,71.91883087,-0.689941406,-0.024414063,-0.818359375
302,1213298681,0.131477326,0.177666813,-0.051690072,0.973897696,4.796522617,-1.988705039,-2.315464258,18.30889893,250.9131012,63.9746666,-0.672851563,-0.032714844,-0.838378906
303,1213307014,0.128274322,0.16278708,-0.047641166,0.977126718,-3.027300596,-1.797040582,-1.64528656,38.70827103,212.0306091,48.54123306,-0.655761719,-0.043457031,-0.846191406
304,1213315347,0.125074923,0.155768558,-0.043067895,0.97889626,-10.32030964,-1.050545216,-0.378985077,58.66814423,103.532486,39.6232605,-0.646484375,-0.059570313,-0.858886719
305,1213323680,0.121478304,0.160768762,-0.039350096,0.978697181,-9.853368759,1.373745918,0.729244769,67.51602173,-63.66682434,36.2454071,-0.648925781,-0.072753906,-0.855957031
306,1213332013,0.118090264,0.174880296,-0.037649833,0.97675705,-0.490161061,-0.438248098,-1.619786739,54.17457199,-193.9181061,30.113554,-0.675292969,-0.083007813,-0.852050781
307,1213340346,0.115260936,0.189536169,-0.035283316,0.974446714,9.42437458,-2.872403145,-4.782597542,62.4824295,-200.3143768,20.0873661,-0.703613281,-0.096679688,-0.834960938
308,1213348679,0.11188601,0.198447004,-0.029422641,0.973259985,11.68787575,-0.25572446,-3.775392771,102.1555862,-115.5591354,22.89543915,-0.7265625,-0.11328125,-0.829101563
309,1213357012,0.108779699,0.203205079,-0.022517644,0.9728145,7.082830906,2.514905214,-0.804505885,109.3336639,-55.78050995,19.22684288,-0.737792969,-0.131835938,-0.823242188
310,1213365345,0.107192077,0.207134157,-0.016335018,0.972285509,1.832609057,2.051354885,0.763129354,94.13777924,-45.99219894,1.103420615,-0.75,-0.154296875,-0.81640625
311,1213373678,0.106529012,0.212931961,-0.011051226,0.971179545,-1.263341069,1.511523485,1.450669765,82.12448883,-73.23236847,-10.05041599,-0.759765625,-0.171386719,-0.812011719
312,1213382011,0.105533846,0.221500561,-0.006411626,0.96941185,-1.165795922,0.509054065,1.0240767,78.43809509,-113.6762543,-5.03524065,-0.779296875,-0.190917969,-0.803710938
313,1213390344,0.103629582,0.232264727,-0.001706326,0.967114925,0.168968424,0.15310581,0.370753914,85.21157837,-144.0510406,5.821619511,-0.791503906,-0.209472656,-0.79296875
314,1213398677,0.101202741,0.244363368,0.003183018,0.964383006,1.320145369,1.15139544,0.105511412,91.23261261,-163.4325714,11.63306522,-0.8203125,-0.229492188,-0.779296875
315,1213407010,0.098916046,0.257208467,0.007574414,0.961250365,2.380202532,2.709486246,0.098308936,85.20935059,-174.9058075,10.83380127,-0.838867188,-0.246582031,-0.764648438
316,1213415343,0.097391814,0.270214289,0.010925019,0.957799554,2.820422649,3.514716387,0.164660275,69.01095581,-180.1232605,4.108991146,-0.865234375,-0.264648438,-0.752441406
317,1213423676,0.096706264,0.28348127,0.013143424,0.953998864,2.635510206,3.519251108,0.381326377,51.35503006,-186.0390167,-3.256841898,-0.890625,-0.280273438,-0.733398438
318,1213432009,0.096407108,0.297292829,0.014271842,0.949799597,2.530529022,3.572386503,0.584946692,36.37495422,-196.7229919,-4.413577557,-0.921386719,-0.299804688,-0.724609375
319,1213440342,0.096071996,0.31183973,0.014058568,0.945160806,3.314644098,3.611912727,0.753965259,19.99644089,-209.4290009,1.010123968,-0.944824219,-0.315429688,-0.704101563
320,1213448675,0.095607176,0.326736271,0.012518513,0.940184295,4.393271923,3.246460199,1.031969547,3.895677805,-217.6187592,8.101481438,-0.979980469,-0.338867188,-0.686523438
321,1213457008,0.095265396,0.341699123,0.009943548,0.934915841,5.180691242,2.952405214,1.324348807,-9.979109764,-220.700058,10.71331024,-1.001953125,-0.349609375,-0.671386719
322,1213465341,0.095281109,0.35662967,0.006474063,0.929352045,5.335184574,2.732769966,1.618689656,-23.08332062,-223.364212,10.00405884,-1.041992188,-0.369140625,-0.655273438
323,1213473674,0.095512725,0.371753901,0.002134104,0.923402429,5.390410423,2.097831726,2.019962788,-35.08370972,-228.4117584,10.96427917,-1.070800781,-0.383789063,-0.629882813
324,1213482007,0.09578561,0.387194097,-0.002769081,0.917005241,5.559441566,1.299350142,2.309372187,-41.91517258,-235.9355011,12.80295181,-1.107421875,-0.403320313,-0.609375
325,1213490340,0.096230567,0.403125733,-0.007950872,0.910036564,6.370179653,1.139189124,2.284196138,-45.8311615,-245.0497284,11.30613041,-1.132324219,-0.424316406,-0.582519531
326,1213498673,0.097170085,0.419183761,-0.013318395,0.902588546,7.527507305,0.865089297,2.179101706,-50.67084503,-249.9684753,5.537551403,-1.171875,-0.446777344,-0.555664063
327,1213507006,0.098675281,0.435127139,-0.018588148,0.894752681,8.36279583,0.333250642,2.243728638,-53.06359482,-250.0547028,-2.566143274,-1.196289063,-0.465332031,-0.521972656
328,1213515339,0.100449495,0.450871259,-0.023544181,0.886606514,8.872318268,-0.245355323,2.367327929,-51.04232025,-249.4579926,-8.103549957,-1.233886719,-0.494628906,-0.491210938
329,1213523672,0.10214854,0.466607243,-0.028045172,0.878098547,9.028628349,-1.019466996,2.276404142,-45.27569962,-250.4983673,-10.50471687,-1.249511719,-0.523925781,-0.452148438
330,1213532005,0.10357213,0.482572377,-0.031904511,0.869125485,9.230256081,-1.569110751,2.111052036,-35.49811935,-255.9541626,-12.0383482,-1.288085938,-0.552734375,-0.407226563
331,1213540338,0.104547299,0.498818487,-0.034984946,0.859666348,10.30206108,-1.724418521,1.999699473,-23.14245605,-261.1225281,-12.66575241,-1.298339844,-0.581054688,-0.35546875
332,1213548671,0.105093777,0.515144587,-0.037180182,0.849823058,10.87141705,-1.74984014,1.976216555,-9.688236237,-264.139679,-14.25755978,-1.329101563,-0.622558594,-0.299316406
333,1213557004,0.105197065,0.531688154,-0.03854068,0.839497685,11.61242867,-1.384612322,2.016083241,3.167388916,-268.6084595,-15.80316925,-1.333984375,-0.656738281,-0.240234375
334,1213565337,0.104989983,0.548231363,-0.039112154,0.82878834,12.56643581,-1.047356725,2.114459991,14.44978809,-270.9446106,-18.5417347,-1.352539063,-0.698242188,-0.164550781
335,1213573670,0.104537986,0.564719021,-0.038884435,0.817711949,13.20428658,-0.628835618,2.347655058,25.03575897,-271.5388184,-22.27970314,-1.336914063,-0.735351563,-0.087890625
336,1213582003,0.103966288,0.581093848,-0.03802669,0.806272686,13.89677238,-0.117796324,2.561344624,32.78541565,-272.7653503,-26.2834816,-1.345703125,-0.768554688,-0.006347656
337,1213590336,0.103280634,0.5973683,-0.036704518,0.79444164,14.77794647,0.003366603,2.78516984,38.388237,-273.6612549,-29.25933456,-1.314941406,-0.802734375,0.072265625
338,1213598669,0.102374479,0.613327146,-0.035041612,0.78238219,15.6427021,0.346166432,3.198611021,43.46870041,-272.2351074,-29.7935524,-1.302734375,-0.834960938,0.161621094
339,1213607002,0.101316378,0.628926814,-0.033286314,0.770115972,16.15750122,0.796038628,3.757186651,45.01528931,-269.5409851,-29.0814743,-1.255859375,-0.853027344,0.241699219
340,1213615335,0.100387245,0.644109786,-0.031735413,0.757653177,16.64656448,1.299105763,4.502499104,41.18841553,-267.5698242,-28.73840714,-1.226074219,-0.873046875,0.322753906
341,1213623668,0.099782884,0.658748984,-0.030638322,0.745087266,17.51323318,1.181270838,5.204717636,32.69089508,-262.802002,-28.02536583,-1.165039063,-0.881835938,0.395507813
342,1213632001,0.09946809,0.672660351,-0.029970637,0.732623041,18.04223824,0.703004301,6.051342487,24.80743217,-255.3870544,-26.63809776,-1.131835938,-0.892578125,0.461914063
343,1213640334,0.099347852,0.685955942,-0.029658904,0.720219076,18.56826401,0.43837738,6.803477764,18.49535942,-248.5650635,-24.98330307,-1.066894531,-0.886230469,0.520507813
344,1213648667,0.099472962,0.69866097,-0.029743649,0.70788002,18.71307373,0.647405326,7.432256699,11.58184338,-243.0119629,-23.32857323,-1.030273438,-0.889160156,0.578125
345,1213657000,0.100010552,0.710882485,-0.030272402,0.695505619,19.07035255,1.517331123,8.369089127,2.520939589,-238.6665039,-22.94828796,-0.962402344,-0.877441406,0.620605469
346,1213665333,0.101468183,0.722407937,-0.031502597,0.683256328,18.99157333,2.643850327,10.07811928,-13.98770905,-231.7828827,-24.4108963,-0.9296875,-0.874023438,0.667480469
347,1213673666,0.104269892,0.733143568,-0.033617642,0.67119211,18.89383888,2.789469242,11.60823917,-36.75521088,-222.8218079,-27.66453552,-0.862304688,-0.862304688,0.689941406
348,1213681999,0.108224787,0.742717385,-0.036822319,0.659774959,18.51598358,2.564485073,13.07753086,-59.7279892,-206.9568176,-25.84168625,-0.835449219,-0.864746094,0.72265625
349,1213690332,0.11269445,0.751009941,-0.040868424,0.649318337,17.14993668,2.105289221,14.79029942,-74.10373688,-186.2490997,-19.83747482,-0.773925781,-0.854492188,0.732910156
350,1213698665,0.117536806,0.758036375,-0.045588538,0.639912665,15.82498932,2.588300467,16.85847092,-85.28000641,-165.1835175,-13.86517811,-0.751464844,-0.856445313,0.745117188
351,1213706998,0.123183526,0.763654053,-0.050350435,0.631762385,15.0452404,3.650803089,18.9421463,-95.55324554,-139.1213684,-17.59081841,-0.697265625,-0.846191406,0.732910156
352,1213715331,0.130804822,0.767677188,-0.055005167,0.624929547,13.93111324,2.252624989,20.86198235,-117.1160278,-110.0245438,-32.54219437,-0.6796875,-0.856445313,0.732910156
353,1213723664,0.140250787,0.770068288,-0.058901362,0.619560659,14.05122375,-2.746604204,21.7698555,-131.6882324,-77.79802704,-52.35752106,-0.630859375,-0.853515625,0.708984375
354,1213731997,0.149562597,0.770682096,-0.06197419,0.616311371,13.82399368,-9.411417007,21.80098534,-124.9626694,-38.7321167,-54.40994644,-0.628417969,-0.876464844,0.694824219
355,1213740330,0.155835211,0.770022333,-0.064192422,0.6153543,13.1103611,-13.95497036,20.8728466,-86.12608337,-4.624736309,-31.93030739,-0.599609375,-0.876953125,0.670410156
356,1213748663,0.157854617,0.768502653,-0.065484129,0.616602063,12.54570103,-13.58768463,19.23479462,-33.19289398,24.37775612,-0.243694156,-0.618652344,-0.890625,0.670410156
357,1213756996,0.156820983,0.766118407,-0.065744191,0.619796932,11.39233208,-10.51791477,17.25766754,7.777207851,51.47851563,19.61659813,-0.611328125,-0.884765625,0.655761719
358,1213765329,0.15415898,0.763162494,-0.064604834,0.624215603,10.19705677,-7.653241158,15.04412937,36.65225983,71.08909607,22.03576469,-0.647460938,-0.897949219,0.6640625
359,1213773662,0.149925843,0.759810627,-0.06291046,0.629486024,13.23718071,-4.97649765,13.18881321,57.95389557,82.78755188,31.64159012,-0.647949219,-0.883789063,0.65625
360,1213781995,0.141507044,0.753416121,-0.061541259,0.639181554,12.53912544,-8.343251228,9.691824913,96.30099487,151.4932404,83.24586487,-0.699707031,-0.888183594,0.663574219
361,1213790328,0.133453354,0.748866856,-0.059269417,0.646433353,-0.156128496,-0.38860023,10.20465755,102.1455994,111.506546,64.11927032,-0.723144531,-0.868164063,0.657714844
362,1213798661,0.125840917,0.744054794,-0.05615779,0.653753161,22.4759388,-7.275352955,-2.289136887,104.4668579,116.9577179,52.13379288,-0.772949219,-0.872558594,0.666992188
363,1213806994,0.1189432,0.741565347,-0.048222117,0.658489585,25.27767754,15.64848709,-23.31442261,142.7298126,77.96439362,-10.16299248,-0.775390625,-0.85546875,0.66015625
364,1213815327,0.115552187,0.732854247,-0.050423771,0.66860348,34.74180984,7.173875809,-28.34142303,8.378903389,175.4672089,74.63053131,-0.809082031,-0.861816406,0.663085938
365,1213823660,0.105308205,0.718137145,-0.045899648,0.686354637,1.628439665,-8.683021545,-4.011617661,135.1940765,313.1173096,85.95263672,-0.848632813,-0.838867188,0.640625
366,1213831993,0.097732492,0.710698187,-0.044652864,0.695243001,7.448199749,4.555865288,7.072236538,82.69799805,154.311142,75.91018677,-0.901855469,-0.834960938,0.647949219
367,1213840326,0.091998674,0.702103019,-0.042838238,0.704806924,8.223314285,-6.639708042,17.8020134,69.11891174,173.4653778,54.16214371,-0.922363281,-0.8203125,0.626953125
368,1213848659,0.088441767,0.696585298,-0.04108905,0.710815847,5.341938496,-0.674032867,15.60400391,49.13193893,110.9060211,27.58904648,-0.971679688,-0.822753906,0.630371094
369,1213856992,0.085807152,0.693102241,-0.039136969,0.714643419,9.760801315,-1.369975686,1.180098176,43.67346954,70.4208374,12.6356945,-0.975585938,-0.8203125,0.616210938
370,1213865325,0.083635345,0.68940109,-0.036495775,0.718609691,11.25933075,0.131679535,-6.267622948,45.70072556,75.41817474,1.991635323,-1.015136719,-0.827636719,0.6171875
371,1213873658,0.080683865,0.684384763,-0.033916932,0.723849118,9.621528625,0.360731661,-2.095675707,51.76021957,99.51065063,12.22259426,-1.013183594,-0.828125,0.606933594
372,1213881991,0.07793472,0.679032385,-0.03180385,0.729266822,10.13923073,1.129149199,2.364672899,44.7724762,104.6211166,15.13630772,-1.05078125,-0.838378906,0.6015625
373,1213890324,0.075961567,0.673882782,-0.030377842,0.734295189,7.413182735,-1.429809332,3.792754173,30.84156227,98.09157562,13.0927763,-1.045410156,-0.828613281,0.578125
374,1213898657,0.074321844,0.670049131,-0.029175512,0.738010526,8.314611435,2.284782648,2.866737366,26.15963936,73.00402069,10.04868412,-1.077148438,-0.834960938,0.568359375
375,1213906990,0.072935842,0.666628361,-0.029081032,0.741243362,8.941348076,0.719545603,0.252422988,12.9692421,62.87249374,16.85747147,-1.074707031,-0.83203125,0.546875
376,1213915323,0.071032442,0.663712084,-0.028669827,0.744055986,9.06801033,-0.326749861,-0.223282963,21.11704636,54.45203781,18.7698288,-1.11328125,-0.839355469,0.5390625
377,1213923656,0.068516016,0.660840154,-0.027798943,0.746876061,9.347445488,1.235636711,1.406708241,31.61842155,53.8219986,20.69362831,-1.108886719,-0.837890625,0.528320313
378,1213931989,0.066214927,0.658370078,-0.027257139,0.749281049,8.452291489,1.956292987,2.766107082,26.34453201,46.14603043,21.06985283,-1.147949219,-0.843261719,0.519042969
379,1213940322,0.064397052,0.656377435,-0.027156502,0.751188755,10.24240494,1.973232627,1.990209699,17.82417297,36.06812286,19.31679344,-1.1484375,-0.838867188,0.505371094
380,1213948655,0.06293948,0.654321432,-0.027620871,0.753086686,9.257761955,0.833934247,2.397005558,8.524060249,36.7048378,20.84703636,-1.185546875,-0.839355469,0.497070313
381,1213956988,0.061948992,0.652818799,-0.027954737,0.754459381,7.87461853,-0.919613242,2.840978146,6.086114407,26.10772896,14.05294228,-1.185058594,-0.840820313,0.486816406
382,1213965321,0.061496682,0.651657939,-0.027953535,0.755499244,8.818184853,0.163000673,2.408730268,4.759191036,20.49768257,5.165099621,-1.220703125,-0.846191406,0.475097656
383,1213973654,0.061402738,0.650539339,-0.028097,0.756464899,8.118115425,-1.053337574,2.532543182,0.205029204,18.98339462,2.542917967,-1.217285156,-0.845214844,0.46484375
384,1213981987,0.061661199,0.649826407,-0.028022615,0.757059157,8.703842163,-1.000412583,1.938888669,-0.635566115,12.18757534,-3.427006006,-1.245117188,-0.848632813,0.458984375
385,1213990320,0.062263321,0.648904562,-0.027922485,0.757803977,10.00166702,-0.245178923,2.296761751,-3.415812969,15.44368458,-7.146962643,-1.236816406,-0.84765625,0.44140625
386,1213998653,0.06316486,0.64816308,-0.027856467,0.758366108,10.66309071,-0.536109149,1.899992824,-6.499153137,12.43839169,-10.06642342,-1.264160156,-0.853027344,0.426269531
387,1214006986,0.064088963,0.647158682,-0.027851131,0.759146273,10.63887024,-0.580654263,2.611646891,-7.32759428,16.66866112,-9.591279984,-1.257324219,-0.853515625,0.409667969
388,1214015319,0.065290168,0.646541297,-0.027717266,0.759574652,9.6135149,-0.785077333,1.318690538,-8.396245956,10.12906265,-13.96562862,-1.287109375,-0.855957031,0.390625
389,1214023652,0.066484787,0.645608664,-0.027580969,0.760269105,10.83221245,0.571272016,2.028529882,-8.358440399,15.3927145,-13.67813492,-1.284179688,-0.854980469,0.376953125
390,1214031985,0.067780226,0.644756794,-0.027692348,0.760873437,8.97832489,-0.793364048,2.023575306,-11.93902969,13.95017147,-12.52849007,-1.310546875,-0.857910156,0.353027344
391,1214040318,0.069158614,0.644035935,-0.027604263,0.761362731,10.07600975,0.550471902,1.088602185,-10.38009644,11.40211773,-15.44477558,-1.313964844,-0.85546875,0.335449219
392,1214048651,0.070299916,0.642935872,-0.027710613,0.762183666,9.788650513,0.858944893,2.98278141,-10.6802702,18.41176414,-10.65842152,-1.339355469,-0.856933594,0.309570313
393,1214056984,0.071436614,0.642074287,-0.027979145,0.762794197,9.237239838,0.545579851,2.282004833,-12.05470467,13.5284071,-9.591945648,-1.33984375,-0.855957031,0.286132813
394,1214065317,0.072366618,0.641206205,-0.028405521,0.763420761,10.28105736,1.320326805,1.633593678,-12.01971531,13.86869049,-5.89114809,-1.367675781,-0.849609375,0.259765625
395,1214073650,0.073004045,0.640088797,-0.029102223,0.764271021,9.506946564,0.654043019,2.667583227,-12.31258774,17.71981812,-0.232654169,-1.366699219,-0.84375,0.232910156
396,1214081983,0.073527329,0.639179349,-0.029821258,0.764954031,9.837543488,0.34748134,2.263030767,-11.52669048,14.34877586,1.029397964,-1.39453125,-0.841796875,0.200683594
397,1214090316,0.073950224,0.638238907,-0.030736066,0.765661955,10.17581654,0.229242563,2.153853416,-12.59319019,14.30907631,3.735312223,-1.38671875,-0.826660156,0.169433594
398,1214098649,0.074215166,0.637298703,-0.031628195,0.766382754,9.749076843,-0.289388359,2.331557274,-11.09237576,14.72305393,5.321397305,-1.409667969,-0.819335938,0.134765625
399,1214106982,0.07439971,0.636442363,-0.03234794,0.767046332,9.68350029,-0.095819354,2.322217703,-8.388228416,13.14265251,4.456967354,-1.40234375,-0.809082031,0.106933594
400,1214115315,0.074535228,0.635636449,-0.0330979,0.767669261,9.647342682,-0.042038467,2.513505459,-8.367941856,12.53638935,5.280926228,-1.41796875,-0.796875,0.070800781
401,1214123648,0.074634999,0.634896338,-0.033798769,0.768241167,9.00189209,-0.396362007,2.14358139,-7.365733147,11.10606575,5.041100025,-1.403320313,-0.779785156,0.0390625
402,1214131981,0.074735351,0.634220183,-0.034328777,0.768766165,8.912065506,-0.296787024,2.275142193,-5.648937702,10.52021503,3.570970535,-1.4140625,-0.772949219,0.008300781
403,1214140314,0.074859269,0.633580029,-0.034929797,0.769254625,8.653301239,-0.559531629,2.220190287,-6.47187376,9.445289612,3.777908325,-1.390625,-0.754394531,-0.01953125
404,1214148647,0.074908309,0.633116126,-0.035355411,0.769612193,9.717591286,-0.018569415,1.879418612,-3.958910465,6.900410652,2.930230141,-1.396484375,-0.741699219,-0.043945313
405,1214156980,0.074826702,0.632536113,-0.035877436,0.770073056,9.338525772,0.041463587,2.284437895,-3.789088964,8.559113503,5.21053791,-1.374023438,-0.728515625,-0.064453125
406,1214165313,0.074712284,0.632072389,-0.036394861,0.770440578,9.844146729,0.516309202,2.272772074,-3.502362728,6.81040287,5.469446659,-1.377929688,-0.71484375,-0.088378906
407,1214173646,0.074618444,0.631603777,-0.037074603,0.770801187,9.783155441,0.250683546,2.511320829,-5.304093838,6.350627899,6.552750111,-1.354003906,-0.696289063,-0.104980469
408,1214181979,0.074585252,0.631151736,-0.03776262,0.77114135,9.899481773,-0.214652896,2.42816329,-6.019167423,6.315664768,6.057985783,-1.360351563,-0.680664063,-0.121582031
409,1214190312,0.074595205,0.630640984,-0.038486965,0.771522462,9.662777901,-0.2499367,2.49668026,-6.716744423,6.990496635,5.883910179,-1.333984375,-0.665527344,-0.135253906
410,1214198645,0.074671775,0.630188465,-0.039274637,0.771845102,9.440977097,-0.617856383,2.243084908,-8.038027763,6.124376774,5.740367889,-1.340820313,-0.653808594,-0.151855469
411,1214206978,0.074743606,0.629681706,-0.03996538,0.772216022,9.730879784,-0.47774151,2.121608496,-6.895915508,6.935681343,4.923836708,-1.317382813,-0.631347656,-0.158691406
412,1214215311,0.074794792,0.629098654,-0.040688492,0.772648335,9.424152374,-0.008130543,2.556697845,-7.206642628,8.511753082,5.63365984,-1.322265625,-0.616699219,-0.168945313
413,1214223644,0.074883342,0.628576338,-0.041504089,0.773021638,9.670280457,0.1399955,2.128816366,-8.388253212,7.011987209,5.834116459,-1.307617188,-0.594726563,-0.18359375
414,1214231977,0.074899696,0.62791723,-0.042419016,0.773505867,10.04127789,0.399096698,2.649110079,-8.993672371,9.549949646,7.759385109,-1.312011719,-0.581054688,-0.190429688
415,1214240310,0.074956357,0.627213597,-0.043483816,0.774011791,9.800884247,0.310687661,2.357164621,-10.87045193,9.821894646,8.570767403,-1.299804688,-0.565429688,-0.204101563
416,1214248643,0.075066961,0.626440465,-0.044695266,0.774558008,10.11115837,0.515653968,2.056397438,-13.04090309,11.04738522,9.448031425,-1.30859375,-0.546386719,-0.212402344
417,1214256976,0.075170271,0.625512481,-0.046074439,0.775216877,10.07576275,0.062450308,1.953886151,-14.76505089,13.23937798,11.07976341,-1.295410156,-0.524414063,-0.229980469
418,1214265309,0.075282015,0.624467254,-0.047450509,0.775965393,10.48242855,-0.338949412,2.178343058,-14.960742,15.52019787,11.23260307,-1.30859375,-0.511230469,-0.241699219
419,1214273642,0.075318843,0.623212039,-0.048788264,0.776887357,10.15769482,-0.222856089,2.760380268,-13.91712093,19.00146103,11.92196178,-1.291503906,-0.487304688,-0.255859375
420,1214281975,0.075470388,0.6219396,-0.050239004,0.777799308,9.887866974,-0.191982269,1.707590342,-16.22701454,19.29876518,11.76307583,-1.30078125,-0.469238281,-0.26953125
421,1214290308,0.075642325,0.620511889,-0.05164247,0.778830409,10.6507864,-0.333227694,1.703924537,-15.88721657,21.8103466,11.27148819,-1.285644531,-0.447265625,-0.287109375
422,1214298641,0.075665116,0.618780434,-0.052979972,0.78011471,9.927657127,-0.44097057,3.069731474,-14.13144016,27.41900444,12.88559914,-1.292480469,-0.425292969,-0.302246094
423,1214306974,0.075898349,0.617146492,-0.054368664,0.781290054,9.972807884,-0.243899569,1.825664639,-16.36881447,25.3266449,10.78105354,-1.27734375,-0.405761719,-0.321777344
424,1214315307,0.076012202,0.615285695,-0.055725738,0.782649875,10.37033367,-0.203696847,2.33847785,-15.19587994,29.49228859,12.25496483,-1.27734375,-0.389160156,-0.334960938
425,1214323640,0.076130323,0.613345206,-0.057133108,0.78405875,10.13717461,-0.106542327,2.651342392,-15.74576855,30.50439072,12.65273094,-1.257324219,-0.3671875,-0.349121094
426,1214331973,0.076324433,0.611385703,-0.058592491,0.785461307,10.25130463,0.011460315,2.280834198,-17.0452137,30.87280464,12.37495422,-1.258789063,-0.345703125,-0.361328125
427,1214340306,0.076564297,0.60923034,-0.059992742,0.787005603,10.49029827,-0.073872112,3.181416273,-16.81251526,34.07480621,11.59280109,-1.237792969,-0.326171875,-0.380859375
428,1214348639,0.077128284,0.607049704,-0.061171193,0.788543284,10.47835064,-0.296849042,2.894907475,-17.22984886,34.99827957,6.338084698,-1.230957031,-0.30859375,-0.391601563
429,1214356972,0.078428365,0.6044541,-0.059956513,0.790499747,11.86615086,0.701645553,2.541508675,2.565489292,45.95438385,-20.91903877,-1.207519531,-0.290527344,-0.403808594
430,1214365305,0.082387343,0.602022886,-0.057602629,0.792125762,5.276863575,14.55826283,4.960524082,-7.326066017,45.03912735,-59.69371033,-1.195800781,-0.282714844,-0.404785156
431,1214373638,0.084403247,0.599672556,-0.060570274,0.79347378,16.29835892,-9.494657516,0.271143794,-49.26034927,34.10098648,5.062989712,-1.176269531,-0.259277344,-0.417480469
432,1214381971,0.086396091,0.597251713,-0.060300004,0.795104206,6.953277111,3.62889576,5.075048447,-13.6597414,41.1254921,-20.91350174,-1.16796875,-0.242675781,-0.424804688
433,1214390304,0.087421238,0.594163716,-0.062202089,0.797156394,12.25504684,-3.655189991,1.716432452,-29.83618927,48.32191849,8.495690346,-1.143554688,-0.228027344,-0.426269531
434,1214398637,0.088760674,0.591449678,-0.063490599,0.798923135,9.199319839,-1.432971239,3.283998489,-25.54420853,43.07447052,-0.559236825,-1.138183594,-0.208496094,-0.434570313
435,1214406970,0.089278683,0.588301361,-0.064994104,0.80106616,11.50353622,-4.712979794,2.134683609,-21.36947632,49.75380325,10.98191547,-1.119140625,-0.187988281,-0.435058594
436,1214415303,0.089347154,0.58516109,-0.065886408,0.803282797,10.28989506,-4.328911304,2.957691908,-10.98205376,50.78043365,11.14271927,-1.111816406,-0.171875,-0.4375
437,1214423636,0.089080416,0.58179903,-0.066366248,0.80571121,11.59620762,-4.798078537,3.712027311,-3.720682383,54.97476196,11.90938282,-1.096679688,-0.157714844,-0.437011719
438,1214431969,0.088359259,0.578337073,-0.066478759,0.808269799,11.00935268,-4.073417187,2.300740957,3.893746614,57.32417297,14.33347321,-1.09375,-0.13671875,-0.438964844
439,1214440302,0.087342069,0.57465905,-0.066202655,0.811021566,11.76130867,-3.392207861,3.025079727,10.56622982,61.30114746,14.8609314,-1.077636719,-0.12109375,-0.443847656
440,1214448635,0.08612451,0.570692241,-0.065630481,0.813993871,11.69707203,-2.213473558,3.076070309,15.22066879,66.60032654,15.38913345,-1.07421875,-0.10546875,-0.448242188
441,1214456968,0.084870018,0.566544712,-0.064947225,0.817071915,11.5585537,-1.301702261,2.64309597,16.75229836,69.40139771,15.10137749,-1.061035156,-0.087402344,-0.449707031
442,1214465301,0.083655275,0.562111974,-0.064177349,0.820313156,11.72406864,-0.855016589,2.965198755,17.11322975,74.16312408,14.54354572,-1.057617188,-0.073730469,-0.454101563
443,1214473634,0.082493834,0.557418942,-0.063385636,0.823687851,11.80003357,-0.343290567,3.320542574,16.86191177,78.06978607,14.03026772,-1.043457031,-0.061523438,-0.458496094
444,1214481967,0.081393182,0.552482188,-0.062565461,0.827178776,11.60401344,0.114800364,3.815215349,16.44630051,81.93795013,13.59288216,-1.040527344,-0.049316406,-0.46484375
445,1214490300,0.08042483,0.547261894,-0.061900232,0.830785871,11.51409054,0.177567929,3.594031334,13.57180882,85.86633301,13.53003216,-1.026855469,-0.034179688,-0.469238281
446,1214498633,0.079557642,0.541835785,-0.061288137,0.834463418,11.27872944,0.286134213,3.563333511,11.92485809,88.8973999,13.13659954,-1.027832031,-0.023925781,-0.475097656
447,1214506966,0.078754857,0.536059856,-0.06064767,0.838307619,11.13843441,-0.118760541,4.016639709,11.63734531,94.12542725,12.55877399,-1.015625,-0.010253906,-0.475585938
448,1214515299,0.078057624,0.530062318,-0.060057353,0.842219889,11.01072121,-0.612188578,2.160573721,9.98872757,97.33044434,12.07694626,-1.009765625,0.002441406,-0.483886719
449,1214523632,0.077335313,0.523943365,-0.059328206,0.846157849,11.95633221,-1.791815877,2.488593817,11.77830887,98.94617462,11.38100243,-0.993164063,0.012695313,-0.486816406
450,1214531965,0.0761678,0.517454922,-0.058351461,0.850314319,13.24907303,-1.741363525,4.250047207,17.54524994,104.8244247,15.41297245,-0.996582031,0.024414063,-0.495605469
451,1214540298,0.07487227,0.510486484,-0.057435557,0.854692519,13.81623363,0.023746192,3.556899071,17.5106678,111.7675171,17.85531044,-0.979980469,0.037109375,-0.498535156
452,1214548631,0.074118696,0.503116786,-0.056594234,0.859172642,14.00842381,1.075309038,2.496918917,12.40552807,117.6308136,12.53598118,-0.98046875,0.043945313,-0.509277344
453,1214556964,0.073818676,0.495016754,-0.055719305,0.863947392,15.0178318,1.184509039,4.007436752,9.257134438,128.6248474,7.721025944,-0.969726563,0.051269531,-0.514160156
454,1214565297,0.074101537,0.486063302,-0.05493727,0.86904192,17.12900925,2.197147846,4.705693245,3.457201242,141.3577728,2.499186277,-0.96484375,0.060058594,-0.523925781
455,1214573630,0.075184874,0.476200283,-0.054372989,0.874428034,17.54737473,3.945802689,2.543875933,-5.115616322,154.5280914,-4.712107658,-0.952636719,0.062011719,-0.530761719
456,1214581963,0.077459559,0.465428263,-0.054068461,0.880030394,17.53477287,4.589056969,2.863704443,-16.90519524,167.5276031,-16.34978676,-0.947265625,0.063476563,-0.542480469
457,1214590296,0.08132264,0.453660697,-0.053901996,0.885818124,19.96769524,5.300817966,3.239441395,-29.59416771,181.8054657,-33.81414413,-0.935058594,0.065429688,-0.551269531
458,1214598629,0.086598955,0.440345913,-0.05408635,0.892004132,19.81553268,6.008749485,1.492271423,-44.19140625,203.7891541,-47.18795395,-0.925292969,0.065429688,-0.567871094
459,1214606962,0.093378775,0.425914377,-0.054940592,0.89825356,19.48065376,6.997080326,-0.011016905,-62.77222061,218.2570648,-60.70992661,-0.907714844,0.0625,-0.581054688
460,1214615295,0.10169784,0.410365283,-0.056843065,0.904448569,19.98452759,7.513783932,-1.980486155,-86.2390213,231.4997253,-72.76836395,-0.899414063,0.055175781,-0.600097656
461,1214623628,0.111175746,0.393310964,-0.059893116,0.910691798,19.07515526,6.933068752,-1.807461023,-109.1177368,249.9340515,-79.46322632,-0.882324219,0.0546875,-0.6171875
462,1214631961,0.121710196,0.374866217,-0.064492047,0.916789472,18.30200005,3.884360313,0.771691859,-136.4826508,264.9298401,-83.39659882,-0.873535156,0.051757813,-0.640136719
463,1214640294,0.131691277,0.354672521,-0.070524126,0.922979832,16.72824287,-3.057399988,10.53579426,-154.6044617,284.8005676,-67.30211639,-0.852539063,0.049804688,-0.663574219
464,1214648627,0.139147013,0.334596992,-0.074311487,0.929064691,17.34082985,-10.63681316,11.83974361,-113.6235886,284.172699,-46.52345657,-0.842285156,0.047851563,-0.687988281
465,1214656960,0.141804963,0.314056307,-0.073479354,0.935874522,19.16330338,-1.586621284,4.467736244,-32.73756409,297.6609192,-4.582889557,-0.816894531,0.038574219,-0.709472656
466,1214665293,0.14109242,0.293211043,-0.07149227,0.942873001,9.722311974,3.851679564,0.3422665,-3.651437998,300.9685059,34.45280457,-0.802246094,0.033203125,-0.732910156
467,1214673626,0.140750483,0.275632054,-0.072900578,0.948104501,6.793527126,7.302467346,-1.305413604,-44.61367416,245.5858459,36.6977005,-0.786132813,0.02734375,-0.7421875
468,1214681959,0.141206235,0.259845495,-0.077677578,0.952107012,9.353364944,2.121450186,-2.928130388,-89.27971649,211.5066986,34.8897438,-0.77734375,0.022949219,-0.765136719
469,1214690292,0.14060843,0.244787216,-0.080830693,0.955916047,8.727795601,-2.782481432,-3.773534298,-63.1404953,203.6751709,41.71305466,-0.763671875,0.01953125,-0.779785156
470,1214698625,0.139383912,0.231554091,-0.081393242,0.959338605,5.298821449,-3.292143822,-3.158640385,-23.7791748,182.3223877,38.46843338,-0.757324219,0.018066406,-0.798339844
471,1214706958,0.138859868,0.221219867,-0.080560751,0.961920083,3.504910946,-1.347250104,-1.868487,-3.071076393,145.2761536,19.93015862,-0.747070313,0.008300781,-0.805664063
472,1214715291,0.139239773,0.214004099,-0.080078058,0.963536561,1.832743764,-2.158145189,-1.048135877,-5.481559277,101.0021133,3.736587048,-0.742675781,-0.001464844,-0.815429688
473,1214723624,0.139310166,0.21036005,-0.078786366,0.964434862,2.276551723,-2.250944376,-1.092905045,12.13681126,53.21349335,0.145527646,-0.741699219,-0.00390625,-0.819335938
474,1214731957,0.138871416,0.208964586,-0.076757655,0.964964926,3.621456385,-1.703877091,-1.478355289,27.35210228,22.74350357,1.628900528,-0.741210938,-0.022460938,-0.825195313
475,1214740290,0.138277143,0.208977237,-0.073920041,0.965269029,4.223712444,-2.077814579,-1.75277698,40.94701004,5.235019684,-0.556124389,-0.7421875,-0.029296875,-0.821289063
476,1214748623,0.137579024,0.209865376,-0.069849417,0.965479195,4.411257267,-1.92111814,-1.754056096,59.21953201,-4.862199306,-3.78373456,-0.751464844,-0.045410156,-0.826171875
477,1214756956,0.136744589,0.211365625,-0.064631939,0.96563381,3.805355787,-1.0350734,-1.428774595,75.91648102,-10.64442253,-5.997950554,-0.751464844,-0.0625,-0.819335938
478,1214765289,0.135857418,0.213484108,-0.058886588,0.965660453,2.586785793,-0.109585576,-1.024237871,84.15548706,-18.74722099,-7.601701736,-0.761230469,-0.077148438,-0.816894531
479,1214773622,0.13476412,0.216729969,-0.053052567,0.96542877,0.974134207,0.352268606,-0.793038189,87.8246994,-33.99887085,-6.545858383,-0.761230469,-0.090820313,-0.812988281
480,1214781955,0.133177608,0.221652806,-0.047500554,0.964820206,-0.092120841,1.677558064,-0.510744572,88.39319611,-58.7477417,-1.053869724,-0.770019531,-0.110351563,-0.8125
481,1214790288,0.131133437,0.22832641,-0.042968407,0.963755667,-0.257069498,2.670727015,-0.28283146,79.14726257,-85.05037689,6.116726875,-0.782714844,-0.126953125,-0.800292969
482,1214798621,0.129207239,0.236535907,-0.039666124,0.962176323,0.235497937,3.136970282,-0.362986058,64.96188354,-109.6526642,6.611384869,-0.799804688,-0.146972656,-0.793945313
483,1214806954,0.127879381,0.24586007,-0.037570354,0.960098147,1.501464725,2.953104973,-0.525051832,48.72714233,-127.3727188,1.078556299,-0.813476563,-0.160644531,-0.78515625
484,1214815287,0.126928031,0.25563091,-0.036329556,0.957717478,2.135140181,3.004191875,-0.342030972,36.82717133,-136.0716095,-1.720064282,-0.830566406,-0.172851563,-0.780761719
485,1214823620,0.126078993,0.265949458,-0.03633821,0.955015779,2.099931955,2.858792782,-0.155265287,20.76210403,-146.0769653,0.455852479,-0.846679688,-0.18359375,-0.766113281
486,1214831953,0.125204101,0.276816756,-0.037604727,0.951988935,2.389033556,1.992101789,-0.21858722,5.171871185,-157.1355286,4.594052315,-0.875,-0.198730469,-0.759277344
487,1214840286,0.124280728,0.28819713,-0.039679997,0.948642612,2.547739983,0.999045074,-0.183414936,-4.581960678,-166.0190735,7.469203949,-0.891113281,-0.205566406,-0.748046875
488,1214848619,0.123504654,0.300105006,-0.042243287,0.944933772,2.579584599,0.465085,-0.131846935,-10.76106358,-175.5581818,6.596139908,-0.91796875,-0.218261719,-0.740234375
489,1214856952,0.123040423,0.312696785,-0.045145471,0.940767884,2.88677001,-0.050638083,0.046727456,-15.63775539,-186.2534637,2.755459547,-0.937988281,-0.226074219,-0.728515625
490,1214865285,0.12283434,0.325907826,-0.048163306,0.936149895,3.700618505,-0.467129171,-0.036949776,-17.39369965,-196.7188416,-1.222673416,-0.967285156,-0.240234375,-0.717285156
491,1214873618,0.122723185,0.339534283,-0.051036723,0.93115592,4.537425041,-0.624536753,-0.064461082,-15.57973862,-202.9710388,-4.007775784,-0.98828125,-0.247558594,-0.703613281
492,1214881951,0.122669742,0.353381634,-0.053717639,0.925844789,4.963984966,-0.515551865,0.097935438,-13.16203976,-207.3896179,-6.329414845,-1.018554688,-0.268066406,-0.693359375
493,1214890284,0.122695245,0.367557824,-0.056189753,0.920157909,5.275379181,-0.739393532,0.300484031,-10.69772625,-212.5042877,-9.236580849,-1.043457031,-0.282226563,-0.669921875
494,1214898617,0.122652166,0.38211453,-0.058285452,0.914083362,5.503260136,-0.985658228,0.548572958,-5.157030582,-219.1856079,-11.20839405,-1.075683594,-0.304199219,-0.654296875
495,1214906950,0.12236575,0.397275329,-0.059885573,0.907531202,6.077469826,-0.677187264,0.734212577,2.903635025,-228.1482849,-12.0518856,-1.098144531,-0.328613281,-0.627441406
496,1214915283,0.121906236,0.412930965,-0.061174046,0.900491416,6.889001846,-0.226241842,0.914027452,8.253982544,-237.1087646,-12.81473351,-1.1328125,-0.354980469,-0.604492188
497,1214923616,0.121302426,0.428998381,-0.0622188,0.892958879,8.220414162,-0.115147971,1.076346874,12.29374123,-244.2101135,-13.59265614,-1.156738281,-0.380371094,-0.571777344
498,1214931949,0.120528564,0.445158899,-0.062873028,0.885072887,8.638074875,-0.496254295,1.229407787,18.01836777,-247.4412842,-14.46877098,-1.190429688,-0.407226563,-0.540039063
499,1214940282,0.119377837,0.461743712,-0.063026883,0.876681149,9.380787849,-0.179686248,1.340860367,26.59680557,-254.677948,-14.16348362,-1.21484375,-0.4375,-0.499511719
500,1214948615,0.117998436,0.478481442,-0.062808938,0.867863834,10.31296253,-0.315675527,1.346809149,32.49911118,-259.3342285,-14.58578014,-1.244628906,-0.471679688,-0.45703125
501,1214956948,0.116338298,0.495378315,-0.061902244,0.858623445,11.07495403,-0.493187636,1.408843279,42.38228226,-262.6080627,-16.60059738,-1.26171875,-0.513671875,-0.408203125
502,1214965281,0.114425369,0.512355864,-0.060223397,0.848982811,11.65781879,0.066237189,1.66648984,53.08835983,-265.8024902,-19.57698059,-1.296386719,-0.556640625,-0.349121094
503,1214973614,0.112480484,0.529482365,-0.058004998,0.838828027,12.31348991,0.513777137,1.928581357,59.33222198,-269.7938538,-23.95330048,-1.301757813,-0.590820313,-0.285644531
504,1214981947,0.110626899,0.546639323,-0.05527503,0.828186214,13.37653923,0.528682768,2.19100666,64.31778717,-273.3771667,-29.49382973,-1.323242188,-0.638671875,-0.217773438
505,1214990280,0.108626746,0.563734174,-0.052101456,0.817122996,14.45775795,0.99979651,2.651560783,69.95514679,-274.7176819,-31.77650642,-1.318359375,-0.67578125,-0.14453125
506,1214998613,0.106541723,0.580556452,-0.048885647,0.805738151,15.37334728,1.451485634,3.163818836,70.55116272,-274.7028503,-31.41116905,-1.329101563,-0.717773438,-0.060058594
507,1215006946,0.104538314,0.597076237,-0.045707997,0.794029713,16.26534271,1.047215462,3.549403429,68.7208252,-273.3749695,-32.3022995,-1.307128906,-0.752441406,0.020019531
508,1215015279,0.102531031,0.61311847,-0.042467844,0.782157421,17.07468605,0.784100592,4.043775082,68.73969269,-269.9769287,-32.68848801,-1.303710938,-0.78515625,0.108886719
509,1215023612,0.100514881,0.628646374,-0.039312556,0.770165801,17.42120552,0.80456531,4.721406937,66.99707031,-265.0229492,-31.76813507,-1.26171875,-0.810058594,0.191894531
510,1215031945,0.098703824,0.643670857,-0.036420319,0.758036494,17.4593544,0.673248112,5.372787476,61.77836609,-261.6867371,-31.56135941,-1.236816406,-0.832519531,0.276855469
511,1215040278,0.097136497,0.658266544,-0.033861689,0.745723486,17.77695274,0.349750221,5.906709194,55.35690308,-258.643158,-31.20635986,-1.177734375,-0.845214844,0.354492188
512,1215048611,0.095764749,0.672297657,-0.031804267,0.733371735,18.30782127,0.262702107,6.437019348,47.7847023,-254.3106995,-28.44120598,-1.148925781,-0.862304688,0.421386719
513,1215056944,0.094551988,0.685741246,-0.03039615,0.721037626,18.96297646,0.20121263,7.041205883,38.89931107,-248.5144653,-23.78658485,-1.078613281,-0.858886719,0.480957031
514,1215065277,0.093461469,0.698516667,-0.029641788,0.7088449,19.31194687,0.304375023,7.438042164,30.55558968,-241.8463745,-18.34408951,-1.051757813,-0.865722656,0.540039063
515,1215073610,0.092566371,0.710686743,-0.029437505,0.696770847,18.96424866,1.644554734,8.141609192,22.48437691,-234.986084,-14.59338093,-0.989257813,-0.857910156,0.587402344
516,1215081943,0.092703797,0.722283423,-0.030212019,0.684689999,18.26718712,2.980047703,9.821637154,2.384118795,-230.8317719,-14.67047501,-0.963867188,-0.854003906,0.634277344
517,1215090276,0.094171807,0.733184099,-0.031943362,0.672720671,18.84976006,3.448955536,11.45159626,-20.76244164,-223.4645691,-17.29696465,-0.89453125,-0.845214844,0.658203125
518,1215098609,0.096945181,0.742803335,-0.034853067,0.661536694,18.36435509,2.675656796,13.20899296,-46.0602684,-205.0131836,-15.87806797,-0.87109375,-0.842285156,0.6875
519,1215106942,0.100148134,0.751129091,-0.038416762,0.6513834,17.27999115,3.113073587,15.46782398,-57.69576263,-183.1051636,-11.12300968,-0.814941406,-0.834960938,0.696289063
520,1215115275,0.104316153,0.75798732,-0.042345874,0.642480373,15.85799217,3.048718214,18.15917587,-72.23197937,-157.3146515,-13.48384571,-0.800292969,-0.83984375,0.712890625
521,1215123608,0.11000403,0.76339519,-0.045972519,0.634833872,14.40836334,1.124659777,20.81958389,-86.7803421,-129.9260254,-27.42097855,-0.750976563,-0.834960938,0.708007813
522,1215131941,0.117219776,0.767386019,-0.048823245,0.628486395,14.21126938,-3.694624901,22.86730385,-97.33802032,-101.9348145,-46.04192352,-0.741210938,-0.843261719,0.716796875
523,1215140274,0.124260657,0.769727886,-0.050629672,0.624111652,14.99105835,-10.27484894,24.01329231,-87.80645752,-65.29106903,-51.26877975,-0.699707031,-0.847167969,0.697753906
524,1215148607,0.128329828,0.770358145,-0.051445425,0.622441649,15.29846001,-13.69104004,24.45574951,-48.88254166,-22.35653496,-30.43131828,-0.704589844,-0.862792969,0.698242188
525,1215156940,0.12854749,0.769423425,-0.051647533,0.623535156,13.74496841,-11.58712578,23.75246811,-3.584559679,18.50924683,1.944364309,-0.683105469,-0.857910156,0.688476563
526,1215165273,0.126735166,0.767333329,-0.051531103,0.626484454,11.99716377,-7.782222271,21.58672142,19.85178757,47.33675385,20.15662384,-0.708984375,-0.863769531,0.69921875
527,1215173606,0.123646945,0.763673484,-0.050888535,0.631605208,17.86182213,-5.487268448,18.22861481,36.74226761,83.44726563,30.31093788,-0.711425781,-0.857421875,0.686035156
528,1215181939,0.118725613,0.756519616,-0.048620701,0.641263485,11.86991596,-4.705915451,15.45702934,67.25318146,163.2730408,39.50798798,-0.754882813,-0.860839844,0.693359375
529,1215190272,0.114005789,0.751038074,-0.04667927,0.648664951,-1.338407636,1.216269255,15.09452629,63.65272522,124.1647263,36.10713577,-0.763671875,-0.852539063,0.673828125
530,1215198605,0.108782426,0.745902121,-0.046585016,0.655459523,15.24924564,-5.648086071,7.647724152,52.37432861,112.0752106,58.71963501,-0.807128906,-0.853027344,0.67578125
531,1215206938,0.100987718,0.740392923,-0.041498225,0.663248301,17.76383972,4.548567772,-7.799492836,123.9977798,130.8832703,32.20066833,-0.815917969,-0.83984375,0.664550781
532,1215215271,0.097413048,0.738054514,-0.040604196,0.666436911,29.82415581,14.62259197,-24.25844955,44.39692307,52.28465652,28.41351128,-0.850097656,-0.842285156,0.673339844
533,1215223604,0.091009341,0.72631228,-0.04167974,0.680037618,19.77389336,-8.011181831,-19.28947449,48.45566559,239.3678131,93.33004761,-0.865722656,-0.833007813,0.649414063
534,1215231937,0.082074903,0.716695726,-0.036603142,0.69157207,3.036694527,-1.28453362,-1.890197277,132.5694275,205.6691742,51.94697571,-0.932617188,-0.821777344,0.650390625
535,1215240270,0.0742843,0.708965898,-0.033715516,0.700509131,10.67527008,-3.28686595,6.7222929,101.4153366,159.7974243,58.59314728,-0.94921875,-0.803710938,0.641601563
536,1215248603,0.067225635,0.70149684,-0.029189214,0.708894432,6.56035614,-2.584779263,16.31312561,109.9589386,154.3495178,35.0478096,-0.997558594,-0.797851563,0.645996094
537,1215256936,0.061994884,0.696407855,-0.025449131,0.71451062,6.337137699,-0.318106979,11.73313427,85.8720932,103.9988251,21.13522911,-1.004394531,-0.790527344,0.637695313
538,1215265269,0.058183327,0.692885756,-0.022075303,0.718357265,8.9507761,-0.41463992,0.850423872,69.27224731,72.27854156,8.803959846,-1.043457031,-0.7890625,0.63671875
539,1215273602,0.055265393,0.689370811,-0.018880364,0.722050905,9.760416031,0.880331993,-3.148855686,59.10715866,70.35860443,1.397074819,-1.045898438,-0.787109375,0.634765625
540,1215281935,0.052338403,0.685192704,-0.01614821,0.726299763,11.40496063,0.904823303,-1.352443457,54.08096313,82.37223053,6.627522469,-1.083007813,-0.793457031,0.633300781
541,1215290268,0.050256345,0.680027127,-0.014440682,0.731320024,10.74622631,1.024849296,1.444547296,35.49802399,98.45967865,8.470517159,-1.077148438,-0.786132813,0.616210938
542,1215298601,0.049161471,0.675321043,-0.013524592,0.735759497,6.970779896,-0.099993721,3.131355047,18.35750961,88.55196381,5.596866131,-1.114257813,-0.791503906,0.6015625
543,1215306934,0.048912823,0.671706855,-0.013295852,0.739081144,8.595873833,0.742056072,1.626174688,4.224917889,66.34111023,2.331557751,-1.105957031,-0.788085938,0.581542969
544,1215315267,0.048777346,0.66836679,-0.013377793,0.74211055,9.143346786,-1.637482882,-0.104325131,0.003521969,61.14280319,3.933142662,-1.142089844,-0.798339844,0.565429688
545,1215323600,0.047767989,0.66532433,-0.012463704,0.744920731,9.423495293,-1.376269937,0.104420453,18.50187302,56.12722778,3.374288797,-1.142578125,-0.796386719,0.549804688
546,1215331933,0.045758452,0.662317693,-0.010906688,0.747745156,9.203407288,1.740249157,1.499518633,34.12216949,56.61139679,7.860999584,-1.180175781,-0.799316406,0.543945313
547,1215340266,0.043562811,0.659706235,-0.00998492,0.750193834,9.809113503,3.523941517,2.321165085,29.62698364,48.2460556,15.14052963,-1.182128906,-0.796386719,0.532714844
548,1215348599,0.041529894,0.657175422,-0.009958712,0.752527177,9.980482101,2.230262995,2.925910711,18.79372406,46.30560684,21.63030243,-1.21875,-0.795898438,0.520996094
549,1215356932,0.040002741,0.655025363,-0.010255357,0.754477799,7.49881649,0.853066683,3.550283194,11.18548584,38.35178757,18.94141197,-1.221679688,-0.789550781,0.508300781
550,1215365265,0.039090276,0.653586447,-0.010408956,0.755770326,8.150213242,-0.361558229,2.852806091,7.293133736,25.65066528,10.91411877,-1.257324219,-0.791992188,0.498535156
551,1215373598,0.038693532,0.652302146,-0.010536596,0.756897688,8.374891281,-0.55573988,2.381032228,3.111119509,22.20925713,5.126166821,-1.255371094,-0.786621094,0.484863281
552,1215381931,0.038711138,0.651173055,-0.010538841,0.75786829,8.93566227,-1.164062619,2.13283658,0.634861827,19.74941254,-0.332882702,-1.290527344,-0.794921875,0.472167969
553,1215390264,0.038958464,0.649958074,-0.01041246,0.758899748,9.435616493,-0.613869846,3.013143063,0.000525092,20.86260986,-3.917980194,-1.290039063,-0.787109375,0.458984375
554,1215398597,0.039506577,0.649000287,-0.010320513,0.759691894,9.944544792,-0.518711865,2.242962837,-3.062925339,16.49479103,-6.830523968,-1.3203125,-0.791015625,0.443359375
555,1215406930,0.040243931,0.648055494,-0.010168389,0.760461569,11.15308475,-0.328458339,1.309424877,-3.986395597,15.79388332,-9.449580193,-1.314941406,-0.791992188,0.423339844
556,1215415263,0.040993664,0.646744072,-0.01010232,0.761538208,10.09162331,-0.289223284,2.559255838,-5.288599968,22.74201012,-8.499731064,-1.341796875,-0.791015625,0.399414063
557,1215423596,0.042058945,0.64581275,-0.00994595,0.762271881,9.71001339,-0.859719098,1.444549203,-6.864822865,15.39635181,-12.94669437,-1.341796875,-0.784667969,0.374511719
558,1215431929,0.043123301,0.644701183,-0.009750929,0.763155282,10.39958096,-0.19478558,2.061757565,-6.653737068,19.04720116,-13.0750761,-1.372558594,-0.784179688,0.349609375
559,1215440262,0.044246305,0.643671751,-0.009610867,0.763961494,9.548524857,-0.416853517,1.696395874,-7.589859962,17.07959366,-13.35688305,-1.370605469,-0.783203125,0.320800781
560,1215448595,0.045266923,0.642661929,-0.009425232,0.76475364,9.653186798,0.364888072,1.758939505,-6.316728592,17.15873909,-12.5999794,-1.396484375,-0.782714844,0.291992188
561,1215456928,0.046173565,0.641546905,-0.009322356,0.765636444,9.834089279,0.413629383,2.698081255,-6.110558987,18.61833954,-10.69735241,-1.391601563,-0.778320313,0.260742188
562,1215465261,0.047013812,0.640564442,-0.009373011,0.766406894,9.191328049,0.431896389,2.262361526,-7.193171978,16.51016235,-8.633562088,-1.416503906,-0.771972656,0.229980469
563,1215473594,0.047752652,0.639738739,-0.009460097,0.767049551,9.724255562,0.563923061,1.45647645,-6.485219002,13.32513142,-7.443345547,-1.404785156,-0.768066406,0.199707031
564,1215481927,0.048348807,0.638751686,-0.009726455,0.767830968,9.706932068,0.289557159,2.430761099,-7.324956417,16.47806358,-4.15311861,-1.418945313,-0.761230469,0.162109375
565,1215490260,0.04897717,0.637919247,-0.010022848,0.768479228,10.5394268,0.162685081,2.604897022,-7.712063313,13.30666161,-4.428036213,-1.403808594,-0.747558594,0.130371094
566,1215498593,0.049524952,0.637026787,-0.01050535,0.769177675,9.912899971,-0.126997545,2.534869194,-9.132143021,14.60182285,-1.81259203,-1.414550781,-0.741699219,0.101074219
567,1215506926,0.050141145,0.636335373,-0.010894394,0.769704521,10.18940735,-0.066218831,1.381458402,-8.515890121,10.6965456,-3.588068247,-1.39453125,-0.729003906,0.069335938
568,1215515259,0.050611526,0.635395527,-0.011302548,0.770443857,9.765693665,-0.122765526,2.657417774,-7.697080135,15.49839783,-1.606858373,-1.399414063,-0.718261719,0.04296875
569,1215523592,0.051198035,0.634690762,-0.011630578,0.770981014,9.23533535,-0.537121952,1.744667172,-7.612372398,10.97942829,-3.803432703,-1.375976563,-0.708007813,0.017089844
570,1215531925,0.051769722,0.633983672,-0.011853433,0.771521091,9.635551453,-0.006229027,1.733087778,-6.486319542,11.43812847,-4.473143101,-1.380371094,-0.693847656,-0.004882813
571,1215540258,0.052208599,0.633047581,-0.012076373,0.772256374,9.107690811,-0.063961208,3.268594742,-5.344616413,15.22442722,-2.977066517,-1.353027344,-0.68359375,-0.025390625
572,1215548591,0.052811969,0.632483304,-0.012308493,0.772673905,9.109826088,-0.334768564,2.11387372,-6.777143002,8.850831985,-4.843857288,-1.362792969,-0.674804688,-0.043457031
573,1215556924,0.053250447,0.631779492,-0.012578411,0.773214817,9.949260712,0.322402656,2.479253054,-5.720376968,11.03882885,-2.740134478,-1.333984375,-0.657714844,-0.055664063
574,1215565257,0.053612173,0.631089032,-0.012894463,0.773748338,9.528471947,0.493453532,2.818812847,-5.638923168,11.09861088,-1.439673901,-1.337402344,-0.646484375,-0.071289063
575,1215573590,0.054033894,0.630488992,-0.013378404,0.774199784,9.865545273,0.577655256,2.248849154,-7.786345005,9.009718895,-0.791531205,-1.31640625,-0.629394531,-0.085449219
576,1215581923,0.054369807,0.629778981,-0.013972446,0.774743557,9.957924843,0.493349224,2.511812925,-8.38699913,11.18754482,1.259362817,-1.322753906,-0.618164063,-0.095703125
577,1215590256,0.054773279,0.629088163,-0.014669662,0.77526325,9.762619019,0.247364044,2.449925423,-9.958404541,10.41250801,1.323500395,-1.299804688,-0.599609375,-0.108398438
578,1215598589,0.055168346,0.628364623,-0.015405545,0.77580744,9.441631317,0.200239107,2.506690264,-10.42076969,11.23828602,1.861860752,-1.3125,-0.583007813,-0.124023438
579,1215606922,0.05559475,0.6276384,-0.01621123,0.776348412,9.720914841,0.038127527,2.537770033,-11.34029675,10.90404606,2.041698217,-1.295898438,-0.569824219,-0.134277344
580,1215615255,0.056003034,0.626921415,-0.017037708,0.776880562,9.503146172,-0.032793831,2.17987442,-11.50025558,10.99825382,2.491663456,-1.306152344,-0.551757813,-0.146972656
581,1215623588,0.056342382,0.626067221,-0.017884333,0.777525663,9.522027969,0.377424359,2.363705873,-11.09355164,13.13028049,3.430246115,-1.285644531,-0.535644531,-0.162109375
582,1215631921,0.056734551,0.625246048,-0.018908508,0.778133571,9.146882057,0.355773807,1.967407227,-13.53781891,12.6077013,4.447951794,-1.297851563,-0.518066406,-0.176269531
583,1215640254,0.057096481,0.624347568,-0.019982019,0.778801203,10.03172112,0.182388067,2.315298319,-13.74926472,13.63483238,5.177650452,-1.280273438,-0.499511719,-0.188964844
584,1215648587,0.057338059,0.623369515,-0.021105144,0.779537022,9.259428978,0.241928384,2.624935865,-13.39135838,15.26843548,7.052102089,-1.291503906,-0.482421875,-0.204589844
585,1215656920,0.057640009,0.622365952,-0.022351664,0.780281544,9.912706375,0.21119304,2.358217478,-15.14429474,15.27944946,7.392540932,-1.278320313,-0.461914063,-0.22265625
586,1215665253,0.057878491,0.621280551,-0.023603795,0.78109163,9.956373215,-0.203169376,2.540711641,-14.81128597,16.95159912,8.284352303,-1.283691406,-0.446289063,-0.239257813
587,1215673586,0.058128763,0.620106399,-0.024818424,0.781967759,9.960923195,-0.219853699,2.306322336,-14.47289658,18.254673,7.833080292,-1.267578125,-0.427734375,-0.257324219
588,1215681919,0.05835776,0.618770719,-0.02596892,0.782970786,10.18446827,-0.540047824,2.559203386,-13.7731142,21.36621475,7.756058216,-1.271484375,-0.410644531,-0.268554688
589,1215690252,0.058628574,0.617410362,-0.027020175,0.783988297,9.977033615,-0.746991277,2.214550257,-12.9767437,21.60811996,6.40713644,-1.252441406,-0.391113281,-0.286132813
590,1215698585,0.058817122,0.615890682,-0.027832823,0.785140276,10.37879467,-0.386234522,2.626648188,-9.88364315,24.8700161,5.510458469,-1.25,-0.371582031,-0.297363281
591,1215706918,0.059092015,0.614213109,-0.028317176,0.786415219,10.39388847,0.373619527,2.888317585,-7.056803703,27.68730545,1.877230287,-1.231445313,-0.354003906,-0.314453125
592,1215715251,0.061683681,0.610820174,-0.022763355,0.789035022,9.057847977,9.04695034,3.360761642,37.71074677,63.63431168,-72.33707428,-1.223632813,-0.346191406,-0.325683594
593,1215723584,0.065817773,0.611187875,-0.026305564,0.78830564,13.34224606,0.206610203,2.818543196,-71.69348907,-12.75756454,-16.76531601,-1.189941406,-0.326171875,-0.333007813
594,1215731917,0.066104904,0.607961953,-0.025648709,0.790793717,8.94426918,-2.9559834,1.803374887,3.964825869,55.87260437,-6.06367445,-1.191894531,-0.310058594,-0.34765625
595,1215740250,0.068803564,0.606622636,-0.025819127,0.791586399,10.16039467,4.615458965,3.772248745,-23.99837303,21.06570625,-27.63372993,-1.167480469,-0.295898438,-0.354492188
596,1215748583,0.070427381,0.60426867,-0.02705659,0.793201029,10.96265507,-1.445487499,1.931282997,-27.39360619,37.79017639,-5.838673592,-1.16015625,-0.28125,-0.360839844
597,1215756916,0.072359495,0.60218209,-0.027856883,0.794585049,10.26615429,-1.366490245,2.920768976,-24.93160439,33.29004288,-13.20559406,-1.137695313,-0.255859375,-0.365234375
598,1215765249,0.073482759,0.599535644,-0.028965764,0.796441436,11.45780468,-2.424864531,3.339319706,-22.0630455,42.90847778,-1.078720212,-1.1328125,-0.244628906,-0.373046875
599,1215773582,0.074351385,0.59688735,-0.029959433,0.798310876,9.747029305,-2.605177641,1.928291917,-18.63810349,42.85524368,0.708888113,-1.116210938,-0.223632813,-0.374511719
600,1215781915,0.075046375,0.594210744,-0.030568186,0.800217211,10.79380131,-2.219445944,2.917285204,-13.06256676,43.98596573,-0.430576056,-1.111328125,-0.206542969,-0.379394531
601,1215790248,0.075475991,0.591249824,-0.031007575,0.802350402,10.59009171,-2.321746111,3.190348864,-9.126371384,48.84843445,1.386104465,-1.094238281,-0.192382813,-0.383789063
602,1215798581,0.075792521,0.588367224,-0.031252045,0.804427326,10.4386282,-1.755686164,2.485483646,-6.100170135,47.86465836,1.031013489,-1.090332031,-0.17578125,-0.389648438
603,1215806914,0.075906835,0.585246265,-0.031323001,0.806687355,10.66765404,-1.572644114,3.172665358,-2.627463102,51.89795685,2.070006132,-1.075195313,-0.157226563,-0.390136719
604,1215815247,0.075978592,0.58207339,-0.031250503,0.808975935,10.78878307,-1.505345583,2.860032082,-0.823217869,53.01533127,1.526343107,-1.072265625,-0.143554688,-0.396484375
605,1215823580,0.075836301,0.578740597,-0.031043548,0.811384559,10.84344959,-1.182518959,2.961271524,2.379761219,55.63428879,2.931186199,-1.052734375,-0.125976563,-0.397460938
606,1215831913,0.075572014,0.575196266,-0.030689958,0.813939095,10.98083496,-0.937383413,3.670509338,4.719770908,59.42480469,3.462799549,-1.055175781,-0.116210938,-0.401367188
607,1215840246,0.075262889,0.571454406,-0.03034028,0.816612065,10.92554283,-0.892983258,2.558423519,4.969114304,62.39304733,4.099892616,-1.040527344,-0.095703125,-0.401855469
608,1215848579,0.074843615,0.567565262,-0.029916549,0.819373786,10.9158802,-0.637414396,2.562659264,6.456259251,64.93222046,5.009356022,-1.0390625,-0.087890625,-0.407714844
609,1215856912,0.074304819,0.563388288,-0.029394343,0.822319269,10.66116619,-0.774150252,2.994192123,8.387916565,69.51434326,5.797076702,-1.024902344,-0.0703125,-0.409179688
610,1215865245,0.073679015,0.559038162,-0.028812127,0.825359464,11.0494051,-0.520874441,4.011124134,9.49341011,72.37827301,6.579520702,-1.029296875,-0.056152344,-0.416992188
611,1215873578,0.072999582,0.554466128,-0.028201412,0.828519046,10.76193523,-0.698118031,2.865875959,10.15662289,75.69016266,7.08341074,-1.014160156,-0.042480469,-0.416015625
612,1215881911,0.07220652,0.549782097,-0.027549896,0.831725717,10.76812363,0.257034689,3.780719995,11.28916264,77.45623016,8.253936768,-1.014160156,-0.033203125,-0.427246094
613,1215890244,0.071540482,0.544736743,-0.026882846,0.835117757,10.84285164,-0.044151165,3.815956593,10.30765343,82.92618561,6.893537045,-1.001464844,-0.019042969,-0.428222656
614,1215898577,0.070918262,0.539663374,-0.026258811,0.83847779,10.84262657,0.391822398,3.262106419,9.355015755,83.10991669,6.801952839,-1.002441406,-0.0078125,-0.438964844
615,1215906910,0.07039015,0.534204185,-0.025585031,0.842031538,11.17798615,0.210160539,5.101552963,9.031143188,88.96128082,5.582111359,-0.988769531,0.003417969,-0.439941406
616,1215915243,0.069974422,0.528474629,-0.024908211,0.845694005,10.82062435,0.053235885,4.032598495,7.911286831,93.04961395,4.5537467,-0.986816406,0.012695313,-0.445800781
617,1215923576,0.06970904,0.522670329,-0.024285011,0.849333227,10.97103405,-0.204801127,3.614976883,6.21217823,93.64501953,3.099768877,-0.972167969,0.025390625,-0.449707031
618,1215931909,0.069487341,0.516473949,-0.023446457,0.853156984,11.56083012,-1.387343526,3.80027771,8.000803947,99.87728882,1.44801116,-0.973144531,0.033691406,-0.457519531
619,1215940242,0.069170073,0.509958565,-0.022423176,0.857120395,11.5278368,-1.702621698,2.291405678,10.68891048,104.6604004,1.404582977,-0.95703125,0.044921875,-0.461914063
620,1215948575,0.068803512,0.50343138,-0.021123229,0.861032486,11.90668583,-2.044768333,2.789143324,14.1665144,104.7851868,0.088587701,-0.956542969,0.047363281,-0.467773438
621,1215956908,0.068176508,0.49643755,-0.01964427,0.865168333,14.02187824,-2.085845232,4.465675354,17.80963898,111.8796692,2.178272247,-0.942382813,0.057128906,-0.478027344
622,1215965241,0.067302763,0.488893718,-0.018001605,0.869557142,13.24234867,-0.732297838,3.052607059,20.89763451,120.3092728,4.484637737,-0.942382813,0.057128906,-0.487792969
623,1215973574,0.066960052,0.481050611,-0.016208373,0.873982012,13.18896484,-0.079595625,2.659307718,18.97591782,124.3515015,-2.871779919,-0.927246094,0.063964844,-0.494628906
624,1215981907,0.066947043,0.472614586,-0.014298311,0.878606677,14.68356228,-0.224723369,4.220535278,17.58211899,133.0319672,-7.190273285,-0.921875,0.06640625,-0.5078125
625,1215990240,0.067126088,0.463358432,-0.012341178,0.883539081,16.06751442,0.705136657,3.500833273,16.34121513,145.0013733,-9.464291573,-0.911132813,0.069335938,-0.510742188
626,1215998573,0.067968786,0.453256249,-0.010208391,0.888726771,15.82573223,2.077063322,1.963362336,13.37597466,157.2039795,-18.17603683,-0.905273438,0.064453125,-0.520019531
627,1216006906,0.069752105,0.442296416,-0.008177001,0.89411515,16.22560501,3.337198734,2.321872473,5.603746414,168.9884033,-28.83875656,-0.888183594,0.065429688,-0.529296875
628,1216015239,0.072667733,0.430589408,-0.006399496,0.899595261,17.80777359,3.980126619,2.586861372,-5.21364975,178.6042786,-40.93759918,-0.877929688,0.059082031,-0.541992188
629,1216023572,0.076667771,0.417624891,-0.004629597,0.905367613,18.22962189,4.746704102,0.429810554,-12.86655045,196.0478973,-53.99918747,-0.863769531,0.054199219,-0.552734375
630,1216031905,0.082165845,0.403603375,-0.003343357,0.911231279,17.3198967,6.321432114,0.48061198,-28.69598198,209.251297,-69.61693573,-0.852539063,0.052734375,-0.567871094
631,1216040238,0.089611523,0.3887797,-0.003519772,0.916956067,18.28017044,6.60995245,1.338205814,-58.70046234,217.1061707,-86.11209106,-0.836425781,0.0390625,-0.579589844
632,1216048571,0.098358601,0.37229827,-0.005637531,0.922869682,18.67875099,5.29413271,4.045907021,-92.22053528,236.561615,-91.74514771,-0.825683594,0.03125,-0.596679688
633,1216056904,0.107860759,0.354092807,-0.010175264,0.92891413,17.16386032,1.877852321,8.264690399,-129.0997162,256.1079102,-88.67007446,-0.804199219,0.026855469,-0.616210938
634,1216065237,0.115725517,0.335123897,-0.015586589,0.934910297,15.97860622,-1.406610847,10.03941727,-133.4512024,263.8937378,-63.42153168,-0.790527344,0.020996094,-0.645019531
635,1216073570,0.119704232,0.31680271,-0.019628227,0.940703094,16.38393974,-1.463073492,5.231748581,-96.95830536,256.2311401,-20.28353119,-0.772949219,0.01953125,-0.66015625
636,1216081903,0.120659277,0.298800707,-0.02164676,0.946409881,15.13737392,0.989021659,1.938451052,-57.09194946,253.9793091,9.843500137,-0.761230469,0.015136719,-0.678222656
637,1216090236,0.121170953,0.281068563,-0.023282716,0.951722801,14.70021534,3.358366489,-0.699324965,-49.95216751,249.6598358,13.26478291,-0.744628906,0.011230469,-0.694824219
638,1216098569,0.121633142,0.262528062,-0.0254003,0.956890464,13.52457619,2.817470074,-1.721490383,-57.46611786,258.552887,15.83388329,-0.731933594,0.001953125,-0.711914063
639,1216106902,0.12136136,0.24370645,-0.027081963,0.961844862,11.0816946,1.400122643,-2.34895134,-49.64582062,262.3311768,23.60787964,-0.71484375,-0.001464844,-0.731933594
640,1216115235,0.120081931,0.22484383,-0.027884241,0.966565311,10.03722,1.016434073,-2.645666361,-34.77170944,262.8054199,33.66644669,-0.703613281,-0.009277344,-0.75
641,1216123568,0.117717654,0.20562084,-0.027488241,0.971137166,9.875631332,1.424853206,-2.451738834,-16.15699959,269.1487122,44.24627686,-0.687011719,-0.014648438,-0.765136719
642,1216131901,0.115573943,0.185790509,-0.025651651,0.97543174,7.099577427,3.490224838,-1.530819535,1.387094498,278.4434204,37.03572845,-0.669921875,-0.022949219,-0.785644531
643,1216140234,0.115661941,0.167583928,-0.02506981,0.978728771,0.801273882,4.230010986,0.222557262,-18.94578743,253.4075928,8.084774017,-0.647460938,-0.037109375,-0.797851563
644,1216148567,0.11741849,0.15532656,-0.027348321,0.980479062,-4.252733707,1.315934777,1.554037333,-52.33029175,165.2838593,-12.23121166,-0.633300781,-0.042480469,-0.815917969
645,1216156900,0.118520655,0.151043594,-0.029789653,0.980944335,-3.573670387,-0.395340055,1.657793403,-40.78601074,55.02600861,-8.184435844,-0.627441406,-0.046875,-0.822753906
646,1216165233,0.118250057,0.15259105,-0.031584285,0.98068136,-0.610399961,-0.473845154,0.793409586,-19.95531082,-25.1648922,5.466492176,-0.630859375,-0.053222656,-0.83203125
647,1216173566,0.116913982,0.158332571,-0.032999612,0.979884326,-0.144996777,-2.086167574,-0.221441761,-6.064655781,-82.21517181,16.32274628,-0.643066406,-0.061035156,-0.831542969
648,1216181899,0.115284137,0.168853775,-0.033518247,0.978302002,1.077127814,-2.661643028,-0.980197608,14.0345192,-147.5028381,14.92316914,-0.663574219,-0.070800781,-0.831542969
649,1216190232,0.114097744,0.180409417,-0.032939412,0.976396263,6.372689724,-2.024096012,-1.637626171,29.22167969,-159.7661896,5.377167225,-0.683105469,-0.075195313,-0.818359375
650,1216198565,0.113377824,0.188597962,-0.030661678,0.975006044,7.269381523,-1.601230621,-1.137431264,45.86371231,-110.859314,-2.724095583,-0.706542969,-0.089355469,-0.818847656
651,1216206898,0.113101006,0.195150062,-0.026797751,0.973861933,3.494801283,-0.233691722,-0.292127371,63.51013184,-85.14199829,-11.75127602,-0.717285156,-0.104980469,-0.809570313
652,1216215231,0.113266803,0.202589035,-0.022990663,0.972419918,0.462880313,1.157850385,0.183215737,62.85525894,-98.22028351,-18.27166367,-0.731933594,-0.119628906,-0.809082031
653,1216223564,0.113429852,0.212260008,-0.019979898,0.97040236,-1.212495565,0.968405008,-0.152635172,55.48770523,-130.4129181,-17.68501282,-0.742675781,-0.133789063,-0.801269531
654,1216231897,0.112892285,0.224331111,-0.017247105,0.967798531,0.243176579,1.861442924,-0.890687466,57.42851639,-165.2819672,-9.030632973,-0.764160156,-0.150390625,-0.795410156
655,1216240230,0.111898117,0.23731105,-0.01524821,0.964847267,2.171217442,3.45024538,-1.144984841,50.36188889,-179.2124176,-1.498081446,-0.784667969,-0.168457031,-0.783203125
656,1216248563,0.111238718,0.250537276,-0.014441717,0.961586714,2.332784414,4.362836838,-1.054581881,33.79934692,-185.7391357,-2.523887873,-0.806640625,-0.184082031,-0.778320313
657,1216256896,0.111330599,0.264315337,-0.015107403,0.957870066,2.5421803,4.502390862,-0.820001841,12.43353462,-196.2290192,-8.251702309,-0.830566406,-0.194824219,-0.764648438
658,1216265229,0.112005256,0.27850759,-0.017046683,0.953728497,3.03680563,3.705960751,-0.839870512,-5.852763653,-205.5409546,-11.97543335,-0.859375,-0.206054688,-0.759277344
659,1216273562,0.112851582,0.293089807,-0.019972619,0.949191451,3.725116491,3.108313799,-0.893657148,-19.03977966,-213.1615601,-11.20101833,-0.8828125,-0.219726563,-0.745605469
660,1216281895,0.113748118,0.307835609,-0.023917267,0.94431299,4.56778574,2.35141921,-0.949782789,-32.28388596,-218.7289276,-8.273985863,-0.914550781,-0.230957031,-0.740722656
661,1216290228,0.114667669,0.322584599,-0.028517799,0.939136744,5.007633686,0.8891716,-0.830260515,-41.11468124,-220.5495148,-6.29224968,-0.939453125,-0.244140625,-0.725097656
662,1216298561,0.115576223,0.337352484,-0.033139784,0.933669031,5.137841702,-0.554443002,-0.601427436,-41.3041687,-222.6257324,-6.492951393,-0.970703125,-0.258789063,-0.716796875
663,1216306894,0.116320051,0.352416188,-0.037213948,0.927840471,4.937643051,-1.315401554,-0.422624707,-33.33691788,-226.780899,-7.639350891,-0.997558594,-0.274902344,-0.700195313
664,1216315227,0.116855949,0.368040949,-0.040652275,0.921541274,5.166566372,-1.187115312,-0.261305094,-23.42387962,-235.8336182,-9.097307205,-1.03515625,-0.291503906,-0.683105469
665,1216323560,0.117257848,0.384256452,-0.043516275,0.91471535,5.771771908,-1.051883221,-0.076116815,-14.94079304,-244.5998077,-11.48484039,-1.061523438,-0.313964844,-0.663574219
666,1216331893,0.117559992,0.400904208,-0.045754366,0.907393157,6.541238785,-1.141561985,0.22267133,-6.010667324,-252.2499847,-14.59514809,-1.102539063,-0.339355469,-0.642089844
667,1216340226,0.117546178,0.418000221,-0.047162365,0.899574816,7.508471012,-1.103019118,0.426866889,6.383766174,-258.8818665,-16.31369781,-1.120605469,-0.3671875,-0.612792969
668,1216348559,0.11716646,0.435340047,-0.047932394,0.89132154,8.11713028,-0.730403006,0.581678152,16.61065483,-264.1602173,-16.31329346,-1.1640625,-0.397949219,-0.581054688
669,1216356892,0.116446756,0.452990234,-0.048134208,0.882566512,8.983668327,-0.586339653,0.677882791,25.64665031,-269.7011719,-16.57374191,-1.186523438,-0.436035156,-0.538574219
670,1216365225,0.115455762,0.47076726,-0.047726493,0.873367429,9.694893837,-0.220357805,0.72486937,34.77783966,-273.7861633,-17.8602829,-1.225097656,-0.47265625,-0.499511719
671,1216373558,0.114351049,0.48877722,-0.046873629,0.863611042,10.54462242,0.363098383,0.6855129,40.74440002,-278.9659119,-20.4265213,-1.243164063,-0.512207031,-0.450195313
672,1216381891,0.113233931,0.506864429,-0.045728125,0.853332341,11.39048004,0.689959407,0.804972053,44.20878601,-283.539093,-23.10502052,-1.278808594,-0.560058594,-0.39453125
673,1216390224,0.112099461,0.525113821,-0.04446112,0.842444599,12.30063343,0.994707286,1.055495262,45.50033188,-288.8909607,-24.8099308,-1.290039063,-0.601074219,-0.332519531
674,1216398557,0.111045897,0.543349981,-0.043193206,0.831007957,13.59251404,1.04127419,1.280952811,44.69552994,-293.2722168,-26.58091736,-1.320800781,-0.6484375,-0.261230469
675,1216406890,0.110038243,0.561523497,-0.041934963,0.819039047,14.62309265,1.132457018,1.596099496,43.68389893,-295.8786011,-27.8167572,-1.321777344,-0.692382813,-0.1796875
676,1216415223,0.109077945,0.579535365,-0.040787511,0.806584001,15.4522295,1.063213587,1.98678863,41.69233322,-298.594696,-28.12987518,-1.337402344,-0.738769531,-0.09765625
677,1216423556,0.108183749,0.597464144,-0.039763544,0.793569446,16.29621315,0.978148758,2.413527012,39.20807648,-301.6192627,-28.66937065,-1.312988281,-0.774414063,-0.005371094
678,1216431889,0.107437469,0.615136564,-0.038915314,0.780096531,17.35318184,0.932567954,2.976438284,35.59089661,-303.4297791,-29.38437271,-1.312988281,-0.817871094,0.087890625
679,1216440222,0.1069763,0.632382512,-0.03832275,0.766276896,18.59494972,0.851408601,3.756612301,29.45845604,-301.3449402,-30.55776787,-1.260742188,-0.846191406,0.181640625
680,1216448555,0.106853463,0.648966789,-0.037992977,0.752317548,19.24933434,0.035456557,4.601810455,22.86108589,-296.4606628,-31.70085526,-1.230957031,-0.875488281,0.266113281
681,1216456888,0.106781863,0.665064156,-0.0378903,0.738141,20.12973213,-0.601758718,5.288898468,19.08006287,-293.0080566,-30.25565529,-1.166503906,-0.890136719,0.346679688
682,1216465221,0.10663411,0.680529237,-0.037991755,0.72392422,21.28359985,-1.02365756,5.596460819,16.90040588,-287.9549866,-27.3580265,-1.130371094,-0.912597656,0.419433594
683,1216473554,0.106316768,0.695299447,-0.038246926,0.709783971,21.76626205,-0.42022115,6.508241177,15.81590748,-280.0025024,-23.75002098,-1.052246094,-0.909667969,0.478515625
684,1216481887,0.106393494,0.709297955,-0.038801193,0.6957528,21.71921158,0.309380949,8.233866692,8.220547676,-272.2886353,-24.17654037,-1.012695313,-0.915039063,0.536621094
685,1216490220,0.107110381,0.722336173,-0.039796192,0.682037115,22.12804985,1.360643744,10.3851347,-3.604933262,-259.7341309,-25.03357887,-0.939453125,-0.905273438,0.580078125
686,1216498553,0.108725257,0.733843148,-0.041780945,0.66925925,22.72762489,1.237256408,12.92651176,-23.42448044,-237.6113586,-21.40003395,-0.911132813,-0.904785156,0.621582031
